time,seconds_elapsed,z,y,x
1776592932716508000,0.4615078125,0.039928000420331955,-0.13277100026607513,-0.46700501441955566
1776592932726287000,0.471287109375,-17.31610107421875,2.009768009185791,-2.621453046798706
1776592932745846800,0.4908466796875,-19.622474670410156,2.504086971282959,-3.309662103652954
1776592932765402000,0.510402099609375,-25.125118255615234,4.580174922943115,-2.6714770793914795
1776592932784953600,0.52995361328125,-26.00616455078125,6.105285167694092,-5.123860836029053
1776592932804507000,0.5495068359375,-19.91191864013672,7.347733020782471,-10.63830280303955
1776592932824060200,0.56906005859375,-9.225173950195312,8.14188003540039,-14.981180191040039
1776592932843615000,0.588614990234375,3.9421260356903076,7.903409957885742,-15.405834197998047
1776592932863170000,0.608170166015625,15.54448413848877,5.110579013824463,-13.257335662841797
1776592932882729200,0.627729248046875,18.28954315185547,2.171837091445923,-10.481412887573242
1776592932902291700,0.647291748046875,17.22705078125,-0.025520000606775284,-8.087587356567383
1776592932921852700,0.666852783203125,17.3533935546875,-1.4335930347442627,-2.554439067840576
1776592932941410600,0.68641064453125,16.330183029174805,-2.4986391067504883,0.8158249855041504
1776592932960966400,0.70596630859375,16.449169158935547,-3.661604881286621,3.438261032104492
1776592932980525000,0.725525146484375,21.938953399658203,-3.2619481086730957,7.207836151123047
1776592933000083000,0.7450830078125,32.77206039428711,-2.575226068496704,10.875478744506836
1776592933019639000,0.76463916015625,35.205787658691406,-3.6881489753723145,11.004704475402832
1776592933039200000,0.784199951171875,28.16267967224121,-3.151499032974243,7.120913028717041
1776592933058765600,0.803765625,16.249853134155273,-1.4338090419769287,4.929008960723877
1776592933078326500,0.823326416015625,7.3340630531311035,0.7109580039978027,4.897180080413818
1776592933097888500,0.842888427734375,5.962889194488525,1.2529640197753906,4.063483238220215
1776592933117448400,0.862448486328125,10.189064979553223,1.890468955039978,1.879377007484436
1776592933137006800,0.8820068359375,10.978182792663574,3.943263053894043,0.5162140130996704
1776592933156567000,0.901567138671875,5.61828088760376,7.294519901275635,0.33956998586654663
1776592933176126700,0.921126708984375,-3.8750739097595215,8.940999031066895,-3.0172500610351562
1776592933195687700,0.940687744140625,-14.819021224975586,6.962207794189453,-10.81157112121582
1776592933215245000,0.9602451171875,-19.20694351196289,3.1557300090789795,-15.700575828552246
1776592933234799400,0.97979931640625,-16.597673416137695,5.210690021514893,-10.972904205322266
1776592933254357000,0.99935693359375,-27.614248275756836,8.499377250671387,-11.438018798828125
1776592933273916000,1.018916015625,-40.56237030029297,6.955934047698975,-9.662858009338379
1776592933293473800,1.038473876953125,-41.9128303527832,1.406978964805603,-5.358650207519531
1776592933313030400,1.058030517578125,-24.512683868408203,-1.9173580408096313,2.3344850540161133
1776592933332591900,1.077591796875,-9.480477333068848,-4.214727878570557,3.861496925354004
1776592933352157200,1.0971572265625,-19.282474517822266,-4.180791854858398,3.7546699047088623
1776592933371719000,1.116718994140625,-31.172712326049805,-4.8499531745910645,3.276947021484375
1776592933391280000,1.136280029296875,-33.21580505371094,-5.974629878997803,3.9437389373779297
1776592933410834400,1.15583447265625,-23.407737731933594,-6.298655033111572,2.59661602973938
1776592933430385700,1.1753857421875,-17.77239227294922,-5.861845016479492,0.9380130171775818
1776592933449945900,1.19494580078125,-22.5083065032959,-2.3605589866638184,1.3799270391464233
1776592933469506600,1.214506591796875,-27.436115264892578,1.2952189445495605,0.05795999988913536
1776592933489062000,1.234061767578125,-18.689533233642578,4.2690348625183105,-3.5882599353790283
1776592933508618800,1.25361865234375,-1.7726479768753052,4.715338230133057,-7.576433181762695
1776592933528180200,1.27318017578125,4.858676910400391,4.172618865966797,-7.57803201675415
1776592933547742500,1.292742431640625,-0.9691669940948486,5.332205772399902,-5.418837070465088
1776592933567304700,1.3123046875,-5.9984917640686035,6.065834999084473,-6.500508785247803
1776592933586865000,1.331864990234375,-2.8976759910583496,5.218717098236084,-9.02435302734375
1776592933606423000,1.351423095703125,6.754211902618408,3.5889549255371094,-8.714252471923828
1776592933625983000,1.37098291015625,14.948580741882324,1.002081036567688,-4.180749893188477
1776592933645545700,1.390545654296875,19.074325561523438,-1.7245670557022095,-1.8513250350952148
1776592933665103400,1.410103271484375,24.279151916503906,-4.689266204833984,0.9307129979133606
1776592933684654800,1.42965478515625,29.32298469543457,-4.879027843475342,3.450424909591675
1776592933704210000,1.4492099609375,38.319908142089844,-4.812869071960449,5.8515729904174805
1776592933723768800,1.468768798828125,38.32057571411133,-2.1205708980560303,11.165375709533691
1776592933743331300,1.488331298828125,36.81642532348633,-1.4219950437545776,7.015367031097412
1776592933762896100,1.507896240234375,29.28102684020996,2.5516579151153564,4.716224193572998
1776592933782458000,1.5274580078125,8.1669340133667,8.796348571777344,10.546769142150879
1776592933802017000,1.54701708984375,-8.156329154968262,11.296607971191406,14.55081558227539
1776592933821572400,1.566572265625,-12.91865062713623,3.747415065765381,3.816541910171509
1776592933841126000,1.5861259765625,-4.588875770568848,-1.2885949611663818,1.1609959602355957
1776592933860683800,1.605683837890625,1.1856420040130615,-0.7891910076141357,-0.15156100690364838
1776592933880247000,1.6252470703125,1.0236320495605469,1.5703530311584473,-3.7693281173706055
1776592933899807200,1.64480712890625,-7.454905986785889,4.081354141235352,-8.58287239074707
1776592933919361800,1.66436181640625,-22.40530014038086,1.9407650232315063,-15.68614387512207
1776592933938916400,1.683916259765625,-26.685550689697266,2.679805040359497,-9.255754470825195
1776592933958469400,1.703469482421875,-25.660436630249023,4.239758014678955,-1.99857497215271
1776592933978022400,1.7230224609375,-27.56551742553711,6.560816764831543,4.474721908569336
1776592933997578000,1.742577880859375,-27.450307846069336,3.4986801147460938,2.4531619548797607
1776592934017135000,1.762135009765625,-24.53392219543457,-1.7984180450439453,-0.6446139812469482
1776592934036692500,1.7816923828125,-16.57369613647461,-2.554379940032959,2.7405309677124023
1776592934056251000,1.8012509765625,-17.619272232055664,-3.676377058029175,1.7025920152664185
1776592934075812000,1.82081201171875,-23.067312240600586,-4.615155220031738,2.572266101837158
1776592934095372300,1.840372314453125,-22.67902946472168,-5.767899036407471,4.281253814697266
1776592934114929200,1.85992919921875,-14.443347930908203,-7.372564792633057,2.479465961456299
1776592934134489900,1.87948974609375,-4.906367778778076,-7.018200874328613,2.3442389965057373
1776592934154052400,1.89905224609375,-2.9964261054992676,-4.282533168792725,3.4058010578155518
1776592934173615900,1.918615966796875,-5.100440979003906,-2.7653961181640625,1.9787729978561401
1776592934193180400,1.938180419921875,-4.647669792175293,-1.2013720273971558,1.5280569791793823
1776592934212740000,1.957739990234375,-2.03262996673584,-0.3776099979877472,1.8160719871520996
1776592934232298800,1.977298828125,0.13151800632476807,0.15878799557685852,2.711437940597534
1776592934251860200,1.996860107421875,-0.014582999981939793,-0.1652120053768158,2.842919111251831
1776592934271417900,2.01641796875,0.12776300311088562,-0.7588620185852051,1.9230120182037354
1776592934290974200,2.03597412109375,0.009631000459194183,-1.2596559524536133,1.124464988708496
1776592934310533600,2.05553369140625,0.4415239989757538,-1.6477819681167603,0.5555959939956665
1776592934330095600,2.075095703125,1.177137017250061,-1.9358229637145996,0.3368130028247833
1776592934349655800,2.09465576171875,0.9507790207862854,-1.944108009338379,0.24788300693035126
1776592934369214500,2.11421435546875,1.1241270303726196,-1.4868210554122925,0.36682799458503723
1776592934388772900,2.13377294921875,0.8124250173568726,-0.9354320168495178,0.5872949957847595
1776592934408332300,2.153332275390625,0.6433830261230469,-0.8693389892578125,0.39547199010849
1776592934427892500,2.172892578125,0.40090399980545044,-1.202478051185608,-0.4302609860897064
1776592934447446000,2.192446044921875,-0.4714049994945526,-1.0970560312271118,-0.44788500666618347
1776592934466998500,2.21199853515625,0.22189800441265106,-0.7088429927825928,0.251147985458374
1776592934486552800,2.231552734375,1.61136794090271,-0.1904979944229126,1.003201961517334
1776592934506106600,2.251106689453125,1.4500590562820435,0.1397159993648529,1.4616849422454834
1776592934525663700,2.270663818359375,1.1277860403060913,-0.01027700025588274,0.704509973526001
1776592934545228300,2.290228271484375,0.8106589913368225,-0.9148589968681335,-0.729092001914978
1776592934564791000,2.309791015625,0.7217109799385071,-0.6892769932746887,-0.5431069731712341
1776592934584349000,2.329348876953125,0.31981900334358215,0.143545001745224,0.7082459926605225
1776592934603906600,2.348906494140625,-0.2304929941892624,0.8955090045928955,1.3968889713287354
1776592934623466200,2.36846630859375,-0.6276299953460693,0.8306390047073364,1.2238099575042725
1776592934643028200,2.3880283203125,-0.00025099999038502574,0.047944001853466034,-0.39905300736427307
1776592934662588200,2.407588134765625,0.5463749766349792,-0.7557989954948425,-1.2202850580215454
1776592934682141400,2.427141357421875,0.31690800189971924,-0.6080449819564819,-0.3938789963722229
1776592934701691100,2.446691162109375,0.236968994140625,-0.38959699869155884,0.05179499834775925
1776592934721245700,2.46624560546875,0.16832399368286133,-0.15386000275611877,0.12693600356578827
1776592934740806700,2.485806640625,0.23047100007534027,-0.4260979890823364,-0.20066100358963013
1776592934760366800,2.505366943359375,0.3829129934310913,-0.35630398988723755,-0.23162299394607544
1776592934779926800,2.5249267578125,-0.02304599992930889,-0.12783299386501312,0.022762000560760498
1776592934799485400,2.5444853515625,-0.3445869982242584,-0.08094999939203262,-0.08842600136995316
1776592934819044000,2.564044189453125,-0.11936499923467636,-0.04613799974322319,-0.23962600529193878
1776592934838601500,2.5836015625,-0.1918569952249527,0.20912200212478638,0.23183800280094147
1776592934858156500,2.603156494140625,-0.437826007604599,0.4449929893016815,0.5451909899711609
1776592934877716200,2.62271630859375,-0.3524479866027832,0.5071049928665161,0.5999469757080078
1776592934897279700,2.64227978515625,0.12993599474430084,-0.0687979981303215,-0.1024169996380806
1776592934916838000,2.661837890625,0.4477370083332062,-0.40753400325775146,-0.4346109926700592
1776592934936388900,2.681388916015625,0.36896198987960815,-0.1929370015859604,-0.13647200167179108
1776592934955940000,2.700940185546875,-0.02442299947142601,0.11079400032758713,0.21755999326705933
1776592934975490300,2.720490234375,-0.255499005317688,0.2577250003814697,0.37485501170158386
1776592934995042800,2.740042724609375,0.05774100124835968,0.10765600204467773,0.13303600251674652
1776592935014600000,2.759599853515625,0.36917799711227417,-0.11361899971961975,-0.25242099165916443
1776592935034158300,2.779158447265625,0.366237998008728,-0.34185901284217834,-0.4090520143508911
1776592935053715000,2.79871484375,0.05033300071954727,-0.1632850021123886,-0.08647699654102325
1776592935073274000,2.818274169921875,-0.3463900089263916,0.15977999567985535,0.21798400580883026
1776592935092836600,2.837836669921875,-0.03411199897527695,0.08364599943161011,0.1533380001783371
1776592935112395300,2.857395263671875,0.3597339987754822,-0.1414400041103363,-0.14087000489234924
1776592935131955500,2.87695556640625,0.3578000068664551,-0.21235600113868713,-0.21490199863910675
1776592935151515400,2.896515380859375,0.04241200163960457,-0.03721899911761284,-0.1261579990386963
1776592935171070500,2.916070556640625,-0.35361000895500183,0.11828099936246872,0.01425699982792139
1776592935190628400,2.93562841796875,-0.2721079885959625,0.3510499894618988,0.24856199324131012
1776592935210188800,2.955188720703125,0.0415319986641407,0.1992270052433014,0.33138999342918396
1776592935229749800,2.974749755859375,0.1929820030927658,0.02689399942755699,0.014756999909877777
1776592935249312800,2.994312744140625,0.358938992023468,-0.055093999952077866,-0.061694998294115067
1776592935268875300,3.013875244140625,-0.18348200619220734,-0.15024399757385254,-0.14034999907016754
1776592935288433400,3.033433349609375,-0.49493101239204407,-0.07890299707651138,-0.013690999709069729
1776592935307989800,3.05298974609375,-0.11232899874448776,-0.08600900322198868,0.061260998249053955
1776592935327544300,3.07254443359375,0.7584149837493896,-0.16252900660037994,-0.09255900233983994
1776592935347099100,3.09209912109375,0.9869509935379028,-0.14577800035476685,-0.24124999344348907
1776592935366652700,3.111652587890625,0.5061439871788025,-0.12296800315380096,-0.31266099214553833
1776592935386203600,3.13120361328125,-0.6692500114440918,-0.1006380021572113,-0.13200600445270538
1776592935405758500,3.150758544921875,-0.8221889734268188,0.31126001477241516,0.3317070007324219
