time,seconds_elapsed,z,y,x
1776592917807842600,0.406842529296875,0.10773400217294693,0.02879299968481064,0.03094400092959404
1776592917817617700,0.41661767578125,0.14146000146865845,0.0389380007982254,0.0185139998793602
1776592917837170700,0.436170654296875,0.15321099758148193,0.04149800166487694,0.015066999942064285
1776592917856726300,0.455726318359375,0.1697240024805069,0.046957001090049744,0.007925000041723251
1776592917876282000,0.4752822265625,0.1845490038394928,0.042291998863220215,0.003693999955430627
1776592917895838500,0.49483837890625,0.19403399527072906,0.03354499861598015,0.006552999839186668
1776592917915394000,0.51439404296875,0.20230700075626373,-0.00009200000204145908,0.03026599995791912
1776592917934951200,0.533951171875,0.22439900040626526,-0.024488000199198723,0.07587599754333496
1776592917954511400,0.553511474609375,0.2170500010251999,-0.019223999232053757,0.07776399701833725
1776592917974069500,0.573069580078125,0.20486600697040558,-0.011264000087976456,0.05637799948453903
1776592917993625000,0.592625,0.19308899343013763,-0.0015539999585598707,0.03913699835538864
1776592918013185800,0.612185791015625,0.13375499844551086,0.006287999916821718,-0.014419999904930592
1776592918032747000,0.6317470703125,0.058827999979257584,0.026697000488638878,-0.06976299732923508
1776592918052296400,0.65129638671875,0.023344000801444054,0.03346800059080124,-0.08235500007867813
1776592918071845600,0.670845703125,0.019158000126481056,0.02676899917423725,-0.06937400251626968
1776592918091402200,0.69040234375,0.021324999630451202,0.021351000294089317,-0.053001999855041504
1776592918110958600,0.70995849609375,0.03855599835515022,0.019578000530600548,-0.02814299985766411
1776592918130513400,0.729513427734375,0.04932999983429909,0.018101999536156654,-0.006082999985665083
1776592918150071300,0.7490712890625,0.03716899827122688,0.01117399986833334,0.01894799992442131
1776592918169632500,0.768632568359375,-0.018696000799536705,-0.008581999689340591,0.027862999588251114
1776592918189190100,0.788190185546875,-0.09957800060510635,-0.0224239993840456,0.01853800006210804
1776592918208743000,0.807742919921875,-0.15302300453186035,-0.021810000762343407,0.007222000043839216
1776592918228297700,0.827297607421875,-0.17528000473976135,-0.02098199911415577,-0.002010999945923686
1776592918247854800,0.846854736328125,-0.16577500104904175,-0.020481999963521957,-0.0057230000384151936
1776592918267411200,0.8664111328125,-0.13508599996566772,-0.018970999866724014,-0.0035170000046491623
1776592918286972400,0.885972412109375,-0.1200530007481575,-0.02193400077521801,-0.0014680000022053719
1776592918306531600,0.905531494140625,-0.07516299933195114,-0.018278000876307487,0.0037799999117851257
1776592918326087000,0.9250869140625,-0.04171599820256233,-0.016130000352859497,0.006597999949008226
1776592918345645000,0.94464501953125,-0.033507999032735825,-0.04022800177335739,0.008344000205397606
1776592918365203700,0.96420361328125,-0.03327900171279907,-0.04058900102972984,0.004397999960929155
1776592918384762000,0.98376220703125,-0.026611000299453735,-0.02690899930894375,0.00267999991774559
1776592918404322300,1.003322265625,-0.01714799925684929,-0.016502000391483307,0.0056130001321434975
1776592918423884500,1.022884521484375,0.0008190000080503523,-0.011935999616980553,-0.0008880000095814466
1776592918443447800,1.04244775390625,0.0559689998626709,-0.007366000209003687,0.0001900000061141327
1776592918463011300,1.06201123046875,0.036256998777389526,-0.009662000462412834,-0.018175000324845314
1776592918482576600,1.08157666015625,-0.032614998519420624,-0.015910999849438667,-0.06367500126361847
1776592918502141700,1.1011416015625,-0.06257700175046921,-0.015576000325381756,-0.07975800335407257
1776592918521704200,1.1207041015625,-0.15598399937152863,-0.024467000737786293,-0.08688899874687195
1776592918541268000,1.14026806640625,-0.2742390036582947,-0.02112000063061714,-0.08512900024652481
1776592918560832800,1.159832763671875,-0.29747098684310913,0.05431099981069565,-0.07260499894618988
1776592918580398300,1.1793984375,-0.26524999737739563,0.19561399519443512,-0.05547799915075302
1776592918599962000,1.198962158203125,-0.23012499511241913,0.3176800012588501,-0.041738998144865036
1776592918619523300,1.2185234375,-0.2044990062713623,0.4202199876308441,-0.030415000393986702
1776592918639082000,1.23808203125,-0.18941199779510498,0.5287349820137024,-0.02187800034880638
1776592918658640000,1.257639892578125,-0.1837030053138733,0.6120439767837524,-0.013605000451207161
1776592918678196500,1.277196533203125,-0.16996799409389496,0.6215320229530334,0.0021120000164955854
1776592918697749800,1.296749755859375,-0.16049399971961975,0.5764909982681274,0.011315000243484974
1776592918717305000,1.31630517578125,-0.15564200282096863,0.5272060036659241,0.011691000312566757
1776592918736864500,1.335864501953125,-0.14742599427700043,0.5026249885559082,0.015455000102519989
1776592918756425000,1.355425048828125,-0.12675899267196655,0.4535270035266876,0.03126699849963188
1776592918775988700,1.37498876953125,-0.0982389971613884,0.4455539882183075,0.059709999710321426
1776592918795551500,1.394551513671875,-0.001243000035174191,0.46297600865364075,0.14669500291347504
1776592918815112000,1.41411181640625,0.13385799527168274,0.5268459916114807,0.268110990524292
1776592918834673200,1.433673095703125,0.22928600013256073,0.6223480105400085,0.36002299189567566
1776592918854234000,1.453234130859375,0.2635810077190399,0.7257310152053833,0.4104689955711365
1776592918873797600,1.472797607421875,0.21891799569129944,0.8343549966812134,0.3942370116710663
1776592918893359900,1.49235986328125,0.15582899749279022,0.908236026763916,0.35805898904800415
1776592918912921000,1.511921142578125,0.13809500634670258,0.98956298828125,0.3495970070362091
1776592918932483600,1.531483642578125,0.15120700001716614,1.0798490047454834,0.36071398854255676
1776592918952043300,1.551043212890625,0.14587199687957764,1.2016589641571045,0.37478598952293396
1776592918971606500,1.5706064453125,0.13359799981117249,1.3178520202636719,0.3781229853630066
1776592918991171800,1.590171875,0.14220599830150604,1.454388976097107,0.3879770040512085
1776592919010732300,1.609732177734375,0.22695699334144592,1.5926339626312256,0.4258689880371094
1776592919030291000,1.629291015625,0.26301801204681396,1.6999499797821045,0.4279719889163971
1776592919049852400,1.648852294921875,0.2162649929523468,1.7683789730072021,0.39906999468803406
1776592919069414000,1.668413818359375,0.1622209995985031,1.7899789810180664,0.37626099586486816
1776592919088972800,1.687972900390625,0.1178859993815422,1.7860790491104126,0.3820059895515442
1776592919108532200,1.7075322265625,0.11046700179576874,1.7358160018920898,0.42733898758888245
1776592919128094000,1.727093994140625,0.06571900099515915,1.6303130388259888,0.4665200114250183
1776592919147656700,1.74665673828125,-0.012861999683082104,1.5402040481567383,0.4878680109977722
1776592919167220500,1.766220458984375,-0.041402000933885574,1.4374279975891113,0.4908289909362793
1776592919186780400,1.785780517578125,-0.04768199846148491,1.3854750394821167,0.4802570044994354
1776592919206336300,1.805336181640625,-0.05667300149798393,1.2816590070724487,0.44836899638175964
1776592919225894400,1.824894287109375,-0.03792399913072586,1.2272000312805176,0.41346099972724915
1776592919245455000,1.844455078125,-0.0007800000021234155,1.2364189624786377,0.38749900460243225
1776592919265012000,1.864011962890625,0.08424399793148041,1.1974380016326904,0.3646869957447052
1776592919284568300,1.883568359375,0.18869900703430176,1.0193589925765991,0.3155840039253235
1776592919304126700,1.903126708984375,0.2582859992980957,0.8374680280685425,0.261588990688324
1776592919323679500,1.922679443359375,0.28317999839782715,0.7183939814567566,0.2205740064382553
1776592919343229400,1.9422294921875,0.21258099377155304,0.6038810014724731,0.17744199931621552
1776592919362783700,1.96178369140625,0.10268600285053253,0.4062289893627167,0.12926000356674194
1776592919382341000,1.981341064453125,-0.021129999309778214,0.14567600190639496,0.0927949994802475
1776592919401897700,2.000897705078125,-0.12726600468158722,-0.05431799963116646,0.09167999774217606
1776592919421455400,2.020455322265625,-0.19800400733947754,-0.08861199766397476,0.119548000395298
1776592919441015800,2.040015869140625,-0.22457000613212585,-0.0621270015835762,0.14462900161743164
1776592919460573700,2.05957373046875,-0.21191099286079407,-0.05122299864888191,0.15841400623321533
1776592919480126700,2.079126708984375,-0.1882839947938919,-0.049129001796245575,0.17373999953269958
1776592919499683000,2.09868310546875,-0.113987997174263,-0.026204999536275864,0.1977660059928894
1776592919519242500,2.118242431640625,-0.07036399841308594,0.005404000170528889,0.22670100629329681
1776592919538801700,2.1378017578125,-0.06647700071334839,0.020609000697731972,0.23614199459552765
1776592919558361000,2.157361083984375,-0.07616899907588959,0.014085999689996243,0.22805599868297577
1776592919577914600,2.17691455078125,-0.08281999826431274,-0.02173200063407421,0.2226630002260208
1776592919597461200,2.196461181640625,-0.08478700369596481,-0.09928499907255173,0.19882400333881378
1776592919617004800,2.2160048828125,-0.07001800090074539,-0.10931900143623352,0.1846340000629425
1776592919636554000,2.235553955078125,-0.004459000192582607,-0.07040300220251083,0.17454500496387482
1776592919656108300,2.2551083984375,0.06666699796915054,-0.04749799892306328,0.1580049991607666
1776592919675664600,2.27466455078125,0.11568199843168259,-0.04764899984002113,0.14172899723052979
1776592919695224000,2.29422412109375,0.1226549968123436,-0.07719600200653076,0.11754400283098221
1776592919714783500,2.313783447265625,0.07848700135946274,-0.0874520018696785,0.09873200207948685
1776592919734344400,2.333344482421875,-0.012842999771237373,-0.23320700228214264,0.06105300039052963
1776592919753905200,2.3529052734375,-0.07938700169324875,-0.3986560106277466,-0.002974000060930848
1776592919773463300,2.37246337890625,-0.11783699691295624,-0.42000100016593933,-0.05554400011897087
1776592919793020000,2.39202001953125,-0.1523369997739792,-0.3591949939727783,-0.08636900037527084
1776592919812573000,2.411572998046875,-0.15170599520206451,-0.2563380002975464,-0.09341000020503998
1776592919832131000,2.431131103515625,-0.1354449987411499,-0.17563599348068237,-0.09598500281572342
1776592919851692500,2.450692626953125,-0.08939699828624725,0.02125599980354309,-0.06354500353336334
1776592919871254000,2.47025390625,-0.007818000391125679,0.25514599680900574,-0.008728999644517899
1776592919890817800,2.48981787109375,0.026203999295830727,0.31443700194358826,0.02744700014591217
1776592919910379800,2.5093798828125,0.038690999150276184,0.22415800392627716,0.043333999812603
1776592919929940000,2.52893994140625,0.05042300000786781,0.11749900132417679,0.03541199862957001
1776592919949497900,2.548497802734375,0.07083199918270111,0.05851000174880028,0.019703999161720276
1776592919969048000,2.568048095703125,0.09000100195407867,-0.04935299977660179,-0.005921000149101019
1776592919988595200,2.58759521484375,0.11448200047016144,-0.1468620002269745,-0.07290399819612503
1776592920008146200,2.607146240234375,0.1019899994134903,-0.24391299486160278,-0.15356600284576416
1776592920027697700,2.62669775390625,0.04890400171279907,-0.3475149869918823,-0.1798820048570633
1776592920047255300,2.64625537109375,-0.04338499903678894,-0.3869340121746063,-0.17501899600028992
1776592920066814700,2.665814697265625,-0.08683899790048599,-0.34905800223350525,-0.16217699646949768
1776592920086371000,2.68537109375,-0.13095900416374207,-0.2556670010089874,-0.11666999757289886
1776592920105928200,2.70492822265625,-0.1626259982585907,-0.2386689931154251,-0.07632900029420853
1776592920125483800,2.72448388671875,-0.19046300649642944,-0.2118699997663498,-0.05973900109529495
1776592920145040000,2.744039794921875,-0.17318299412727356,-0.15063700079917908,-0.06484699994325638
1776592920164601900,2.763601806640625,-0.04807699844241142,-0.050018999725580215,-0.06122700124979019
1776592920184164600,2.78316455078125,0.06981199979782104,-0.012662000022828579,-0.05346300080418587
1776592920203725000,2.80272509765625,0.0829240009188652,-0.09832599759101868,-0.06864599883556366
1776592920223282700,2.82228271484375,0.05145600065588951,-0.10422900319099426,-0.06225699931383133
1776592920242838000,2.841838134765625,0.028519999235868454,-0.20220500230789185,-0.06893400102853775
1776592920262395600,2.861395751953125,0.034954000264406204,-0.3487899899482727,-0.07527100294828415
1776592920281951700,2.88095166015625,-0.005123999901115894,-0.46651801466941833,-0.07825499773025513
1776592920301508400,2.90050830078125,-0.06485199928283691,-0.4967440068721771,-0.07914800196886063
1776592920321065000,2.92006494140625,-0.0993800014257431,-0.42432901263237,-0.0681850016117096
1776592920340619800,2.939619873046875,-0.05014299973845482,-0.42691099643707275,-0.053727999329566956
1776592920360179200,2.95917919921875,-0.004174999892711639,-0.4913940131664276,-0.04531700164079666
1776592920379741700,2.97874169921875,-0.03378099948167801,-0.4987120032310486,-0.04242200031876564
1776592920399301400,2.99830126953125,-0.08591099828481674,-0.46369698643684387,-0.0267340000718832
1776592920418859000,3.01785888671875,-0.0472010001540184,-0.5161269903182983,0.011276000179350376
1776592920438417200,3.037417236328125,0.027166999876499176,-0.6297000050544739,0.0349389985203743
1776592920457974800,3.056974853515625,0.02145499922335148,-0.6266670227050781,0.03182100132107735
1776592920477531100,3.07653125,-0.032763998955488205,-0.5777419805526733,0.008067999966442585
1776592920497088300,3.096088134765625,-0.05821600183844566,-0.6225330233573914,-0.017242999747395515
1776592920516649200,3.115649169921875,-0.11242800205945969,-0.8780779838562012,-0.09056200087070465
1776592920536212700,3.135212646484375,-0.14675100147724152,-1.0567710399627686,-0.18367500603199005
1776592920555772400,3.1547724609375,-0.13529199361801147,-1.051321029663086,-0.28077900409698486
1776592920575326000,3.174325927734375,-0.10011699795722961,-0.9471160173416138,-0.3495050072669983
1776592920594876200,3.193876220703125,-0.01104000024497509,-0.9736909866333008,-0.3807460069656372
1776592920614419200,3.213419189453125,0.144554004073143,-1.0654829740524292,-0.37286698818206787
1776592920633963000,3.232962890625,0.2142390012741089,-0.9948469996452332,-0.3529359996318817
1776592920653517600,3.252517578125,0.21709400415420532,-0.9058740139007568,-0.3355630040168762
1776592920673075700,3.27207568359375,0.19266599416732788,-0.9585469961166382,-0.32163000106811523
1776592920692635100,3.29163525390625,0.17615100741386414,-1.1522170305252075,-0.3009600043296814
1776592920712190500,3.3111904296875,0.11775100231170654,-1.1685899496078491,-0.28745099902153015
1776592920731745000,3.3307451171875,0.012195000424981117,-1.0599050521850586,-0.3050369918346405
1776592920751303000,3.350302978515625,-0.0703129991889,-0.9663839936256409,-0.33756598830223083
1776592920770856700,3.369856689453125,-0.04941999912261963,-0.9952939748764038,-0.3442569971084595
1776592920790407700,3.38940771484375,0.02528100088238716,-1.0220060348510742,-0.33499398827552795
1776592920809965300,3.40896533203125,0.02017899975180626,-0.8738899827003479,-0.3521459996700287
1776592920829527800,3.42852783203125,-0.02820100076496601,-0.7154070138931274,-0.377701997756958
1776592920849085000,3.4480849609375,-0.04690700024366379,-0.6524289846420288,-0.37315601110458374
1776592920868635600,3.4676357421875,-0.01608400046825409,-0.6581689715385437,-0.31454798579216003
1776592920888184300,3.487184326171875,-0.004825999960303307,-0.6336159706115723,-0.26842001080513
1776592920907738400,3.50673828125,-0.005177999846637249,-0.5407710075378418,-0.22811299562454224
1776592920927295700,3.526295654296875,0.023017000406980515,-0.5167040228843689,-0.17441000044345856
1776592920946850800,3.545850830078125,0.02439899928867817,-0.533748984336853,-0.16233299672603607
1776592920966407400,3.565407470703125,0.04401399940252304,-0.5847319960594177,-0.13148200511932373
1776592920985964800,3.58496484375,0.0751969963312149,-0.5886759757995605,-0.09423399716615677
1776592921005522000,3.60452197265625,0.0614360012114048,-0.5385259985923767,-0.10529100149869919
1776592921025081600,3.62408154296875,0.029884999617934227,-0.48335298895835876,-0.13501499593257904
1776592921044639700,3.6436396484375,0.027907000854611397,-0.4667069911956787,-0.1531659960746765
1776592921064197000,3.663197021484375,0.03250199928879738,-0.4719640016555786,-0.16685600578784943
1776592921083752700,3.682752685546875,0.05010899901390076,-0.4735940098762512,-0.1675570011138916
1776592921103308000,3.70230810546875,0.06724300235509872,-0.4844900071620941,-0.17331500351428986
1776592921122868000,3.721867919921875,0.09232600033283234,-0.4849660098552704,-0.16886399686336517
1776592921142425900,3.74142578125,0.1293019950389862,-0.5241000056266785,-0.15156300365924835
1776592921161984300,3.760984375,0.17599299550056458,-0.5357930064201355,-0.12387300282716751
1776592921181541400,3.780541259765625,0.21588900685310364,-0.4864639937877655,-0.10448800027370453
1776592921201094400,3.800094482421875,0.2320300042629242,-0.41187500953674316,-0.09758800268173218
1776592921220652800,3.81965283203125,0.21680200099945068,-0.34813499450683594,-0.11678600311279297
1776592921240216000,3.839216064453125,0.18480299413204193,-0.3125300109386444,-0.15864500403404236
1776592921259774500,3.8587744140625,0.1437000036239624,-0.2733539938926697,-0.20579299330711365
1776592921279331300,3.878331298828125,0.047680001705884933,-0.22224199771881104,-0.29165199398994446
1776592921298888400,3.897888427734375,-0.03269600123167038,-0.17917700111865997,-0.3459320068359375
1776592921318444500,3.917444580078125,-0.07325699925422668,-0.1343429982662201,-0.35996299982070923
1776592921338003200,3.937003173828125,-0.08860500156879425,-0.09168999642133713,-0.33941900730133057
1776592921357563100,3.956563232421875,-0.06590799987316132,-0.07208599895238876,-0.2928360104560852
1776592921377121000,3.97612109375,-0.03359299898147583,-0.062004998326301575,-0.2541399896144867
1776592921396678400,3.995678466796875,0.027493000030517578,-0.04644300043582916,-0.17369699478149414
1776592921416238000,4.015238037109375,0.03457599878311157,-0.036430999636650085,-0.11754000186920166
1776592921435794700,4.034794677734375,0.03671399876475334,-0.029400000348687172,-0.061069998890161514
1776592921455350000,4.05435009765625,0.06734900176525116,-0.02169799990952015,-0.00017899999511428177
1776592921474910000,4.073909912109375,0.03999299928545952,-0.03123600035905838,0.06035799905657768
1776592921494471700,4.0934716796875,-0.009371000342071056,-0.04324200004339218,0.08466999977827072
1776592921514035000,4.113034912109375,-0.04598899930715561,-0.04367800056934357,0.06858000159263611
1776592921533594600,4.1325947265625,-0.02672100067138672,-0.03472999855875969,0.07618899643421173
1776592921553154600,4.152154541015625,-0.015138999558985233,-0.03140399977564812,0.07275500148534775
1776592921572718800,4.17171875,-0.02160399965941906,-0.026704000309109688,0.0616689994931221
1776592921592283000,4.191282958984375,-0.04135499894618988,-0.02264700084924698,0.037578001618385315
1776592921611845400,4.210845458984375,-0.06443099677562714,-0.0026630000211298466,0.025294000282883644
1776592921631406300,4.23040625,-0.10141299664974213,0.03695400059223175,0.021250000223517418
1776592921650967600,4.249967529296875,-0.11809699982404709,0.04294300079345703,0.019547000527381897
1776592921670528800,4.26952880859375,-0.09819400310516357,0.037119001150131226,0.022810999304056168
1776592921690088200,4.289088134765625,-0.05334499850869179,0.038846999406814575,0.034046001732349396
1776592921709646000,4.30864599609375,-0.00841199979186058,0.038766998797655106,0.05805100128054619
1776592921729204000,4.328203857421875,0.06945499777793884,0.04305899888277054,0.09877300262451172
1776592921748764000,4.347763916015625,0.14867599308490753,0.04872100055217743,0.14421199262142181
1776592921768327200,4.3673271484375,0.19339700043201447,0.05071999877691269,0.16846999526023865
1776592921787888400,4.386888427734375,0.22289399802684784,0.037039000540971756,0.1780409961938858
1776592921807445000,4.406445068359375,0.23197700083255768,0.007104000076651573,0.16252900660037994
