time,seconds_elapsed,z,y,x
1776592601854399200,0.401399169921875,-0.061792999505996704,0.1847440004348755,0.09723199903964996
1776592601864181200,0.41118115234375,-0.06355100125074387,-0.04815100133419037,0.09771700203418732
1776592601883740700,0.43074072265625,-0.1325169950723648,-0.04190399870276451,-0.05286300182342529
1776592601903296000,0.4502958984375,0.016806000843644142,0.04351099953055382,-0.053672999143600464
1776592601922856700,0.469856689453125,-0.06495500355958939,-0.03790999948978424,-0.2989340126514435
1776592601942418000,0.48941796875,-0.06457100063562393,0.04063300043344498,-0.13352900743484497
1776592601961976000,0.50897607421875,0.0989760011434555,-0.04340299963951111,0.10415700078010559
1776592601981533700,0.52853369140625,0.016940999776124954,-0.043310001492500305,0.11207400262355804
1776592602001096200,0.54809619140625,0.016510000452399254,-0.042309001088142395,-0.030271999537944794
1776592602020660000,0.567659912109375,-0.133884996175766,-0.04025400057435036,-0.10492700338363647
1776592602040219400,0.587219482421875,-0.06645499914884567,-0.03709999844431877,0.0503540001809597
1776592602059780600,0.606780517578125,0.01474700029939413,0.04790399968624115,0.13324399292469025
1776592602079343400,0.62634326171875,0.0963210016489029,0.05029100179672241,0.046619001775979996
1776592602098901000,0.64590087890625,0.09626699984073639,-0.09861200302839279,-0.18690699338912964
1776592602118456000,0.6654560546875,-0.06737499684095383,-0.09699500352144241,-0.10600800067186356
1776592602138010000,0.685010009765625,-0.06763099879026413,-0.09531799703836441,-0.10571599751710892
1776592602157565000,0.70456494140625,0.013573000207543373,-0.09226900339126587,-0.022079000249505043
1776592602177124400,0.724124267578125,0.09434399753808975,-0.01892399974167347,-0.017333000898361206
1776592602196685300,0.743685302734375,0.17483699321746826,0.06936299800872803,0.057434000074863434
1776592602216246800,0.763246826171875,0.01014699973165989,-0.005673000123351812,-0.004255999810993671
1776592602235808500,0.78280859375,-0.14066700637340546,-0.0684410035610199,-0.08106900006532669
1776592602255365400,0.802365478515625,-0.14140599966049194,0.0037189999129623175,0.00395399983972311
1776592602274923300,0.82192333984375,-0.07364600151777267,0.08790899813175201,0.15322500467300415
1776592602294484200,0.841484130859375,0.1719360053539276,0.0864190012216568,0.06683100014925003
1776592602314042600,0.861042724609375,0.172542005777359,-0.0661889985203743,-0.005909999832510948
1776592602333598700,0.8805986328125,-0.07249800115823746,-0.3114500045776367,-0.17204000055789948
1776592602353151000,0.90015087890625,-0.14076800644397736,-0.14634500443935394,0.05763600021600723
1776592602372704800,0.919704833984375,-0.07344900071620941,0.09094800055027008,0.13768799602985382
1776592602392261600,0.93926171875,-0.07436899840831757,0.0975399985909462,-0.013636999763548374
1776592602411818500,0.958818603515625,0.08827199786901474,0.10318899899721146,-0.09639299660921097
1776592602431379700,0.978379638671875,0.0874669998884201,-0.12295900285243988,-0.09652599692344666
1776592602450939600,0.997939697265625,0.005131999962031841,-0.0371600016951561,0.13498100638389587
1776592602470498800,1.017498779296875,-0.07659199833869934,0.11325299739837646,0.13287000358104706
1776592602490061600,1.0370615234375,0.005874000024050474,0.027124999091029167,-0.10068800300359726
1776592602509623600,1.05662353515625,-0.07518099993467331,0.022836999967694283,-0.10125900059938431
1776592602529177900,1.076177734375,-0.14293600618839264,0.020478999242186546,0.04873599857091904
1776592602548731000,1.09573095703125,-0.07466199994087219,0.10116299986839294,0.13004900515079498
1776592602568288800,1.115288818359375,0.007575999945402145,0.09836100041866302,0.1275629997253418
1776592602587850200,1.134850341796875,0.1716659963130951,-0.055135998874902725,-0.1064390018582344
1776592602607415300,1.154415283203125,0.008729999884963036,-0.058191001415252686,-0.10779300332069397
1776592602626978800,1.173978759765625,-0.14082300662994385,-0.060040999203920364,-0.0259419996291399
1776592602646539000,1.1935390625,0.09090399742126465,0.08852899819612503,0.042256999760866165
1776592602666097700,1.21309765625,0.24078500270843506,0.08807499706745148,0.042486999183893204
1776592602685655600,1.232655517578125,-0.07257000356912613,0.08820299804210663,-0.023871999233961105
1776592602705215500,1.252215576171875,-0.14075499773025513,-0.06196000054478645,-0.18393400311470032
1776592602724776400,1.2717763671875,0.009115999564528465,0.004668999928981066,-0.016273999586701393
1776592602744336600,1.291336669921875,0.009606000036001205,0.08237600326538086,0.13608300685882568
1776592602763899100,1.310899169921875,0.1738860011100769,0.0764010027050972,0.13715100288391113
1776592602783464700,1.330464599609375,0.17440399527549744,-0.1589689999818802,-0.2567580044269562
1776592602803031000,1.350031005859375,-0.30210500955581665,-0.07909300178289413,-0.09166499972343445
1776592602822593300,1.36959326171875,-0.13879899680614471,-0.010513000190258026,-0.00828699953854084
1776592602842152200,1.389152099609375,0.17384199798107147,-0.07469400018453598,0.06106400117278099
1776592602861712400,1.40871240234375,0.2407670021057129,-0.06718999892473221,-0.005317999981343746
1776592602881269800,1.428269775390625,0.17053799331188202,-0.2176540046930313,-0.16392600536346436
1776592602900830500,1.44783056640625,0.08660200238227844,0.026882000267505646,0.0058650001883506775
1776592602920393700,1.467393798828125,-0.14663100242614746,0.11846800148487091,0.010489000007510185
1776592602939951900,1.486951904296875,-0.0798100009560585,0.044234998524188995,0.013825999572873116
1776592602959514600,1.5065146484375,0.2325270026922226,-0.10029800236225128,-0.06510599702596664
1776592602979078400,1.526078369140625,0.08195099979639053,-0.01438399963080883,0.01912599988281727
1776592602998638800,1.545638916015625,-0.14979800581932068,0.0547650009393692,0.1699250042438507
1776592603018198500,1.565198486328125,0.08197499811649323,0.1347920000553131,0.08893399685621262
1776592603037757000,1.5847568359375,0.23230500519275665,-0.018337000161409378,-0.06090199947357178
1776592603057311500,1.6043115234375,-0.14885200560092926,-0.2650339901447296,-0.29194900393486023
1776592603076867000,1.6238671875,-0.1489579975605011,-0.019677000120282173,0.02305999957025051
1776592603096428800,1.6434287109375,0.00042600001324899495,0.05088699981570244,0.1742749959230423
1776592603115989800,1.66298974609375,0.08174899965524673,0.05324900150299072,0.09338100254535675
1776592603135550500,1.682550537109375,0.16314400732517242,0.13702799379825592,0.09365300089120865
1776592603155110400,1.7021103515625,0.16291199624538422,-0.011099999770522118,-0.05678800120949745
1776592603174665000,1.7216650390625,-0.08213099837303162,0.057874999940395355,0.019154999405145645
1776592603194219500,1.741219482421875,-0.1493459939956665,0.05493500083684921,0.07729300111532211
1776592603213771800,1.760771728515625,0.0019809999503195286,0.04776600003242493,0.1494400054216385
1776592603233328000,1.780328125,0.003352999920025468,-0.027243999764323235,-0.008034000173211098
1776592603252892200,1.79989208984375,0.004143999889492989,-0.030933000147342682,-0.09538400173187256
1776592603272452600,1.81945263671875,-0.22688299417495728,-0.033640000969171524,-0.0980520024895668
1776592603292011800,1.83901171875,-0.22631299495697021,0.030876999720931053,-0.01706800051033497
1776592603311572500,1.858572509765625,-0.14400699734687805,0.1906059980392456,0.13216400146484375
1776592603331135700,1.8781357421875,0.006564000155776739,0.18582899868488312,0.1313910037279129
1776592603350700800,1.89770068359375,0.2395000010728836,0.09493900090456009,-0.10068800300359726
1776592603370265300,1.917265380859375,0.009692000225186348,-0.06650300323963165,-0.10101799666881561
1776592603389831700,1.936831787109375,0.09338700026273727,0.15167999267578125,0.21202200651168823
1776592603409396500,1.956396484375,0.6402879953384399,0.21935999393463135,0.21092799305915833
1776592603428955600,1.97595556640625,0.5594159960746765,-0.031355999410152435,-0.10351499915122986
1776592603448512800,1.9955126953125,0.1791290044784546,-0.1880359947681427,-0.10593999922275543
1776592603468072400,2.015072509765625,-0.4467630088329315,-0.11029600352048874,0.04204300045967102
1776592603487637800,2.0346376953125,-0.44679099321365356,-0.04106700047850609,0.12035399675369263
1776592603507204400,2.054204345703125,0.015869000926613808,-0.10461799800395966,0.11464499682188034
1776592603526765300,2.073765380859375,0.014797000214457512,-0.17740699648857117,-0.1225619986653328
1776592603546325000,2.093324951171875,-0.13628600537776947,0.06403300166130066,0.022622000426054
1776592603565883600,2.112883544921875,-0.13700300455093384,0.07001300156116486,0.01842699944972992
1776592603585439000,2.13243896484375,-0.06940600275993347,-0.07550600171089172,0.015025000087916851
1776592603604998100,2.151998046875,-0.06987900286912918,-0.07164499908685684,-0.055688999593257904
1776592603624555800,2.1715556640625,0.01130599994212389,-0.1493220031261444,-0.057342998683452606
1776592603644108800,2.19110888671875,0.09230100363492966,-0.14434100687503815,0.010522999800741673
1776592603663662600,2.21066259765625,0.09132400155067444,-0.1380770057439804,-0.05626500025391579
1776592603683217700,2.2302177734375,-0.2235960066318512,-0.04588700085878372,0.014317999593913555
1776592603702775000,2.249775146484375,-0.307220995426178,0.03422300145030022,0.016916999593377113
1776592603722332000,2.269331787109375,-0.22707499563694,-0.023892000317573547,0.10029400140047073
1776592603741887700,2.2888876953125,-0.07838200032711029,-0.09836000204086304,0.01921599917113781
1776592603761442000,2.308442138671875,-0.1471569985151291,-0.09363400191068649,0.017861999571323395
1776592603780997400,2.327997314453125,-0.0792429968714714,-0.00902399979531765,0.25602999329566956
1776592603800555300,2.34755517578125,0.16614200174808502,0.1428219974040985,0.2410680055618286
1776592603820112100,2.367112060546875,0.08509200066328049,0.14263899624347687,0.14030499756336212
1776592603839667700,2.386667724609375,0.004282000008970499,0.058733001351356506,0.040477000176906586
1776592603859220700,2.406220703125,-0.07642699778079987,-0.012876000255346298,0.02469000034034252
1776592603878778000,2.425778076171875,0.08764000236988068,0.052629001438617706,0.24842000007629395
1776592603898335200,2.445335205078125,0.4027099907398224,0.2891499996185303,0.2989479899406433
1776592603917891300,2.464891357421875,-0.0713379979133606,0.19301199913024902,0.14401300251483917
1776592603937453300,2.484453369140625,-0.1365939974784851,0.09515699744224548,0.12588000297546387
1776592603957013000,2.504012939453125,0.015647999942302704,-0.0002809999859891832,0.10817600041627884
1776592603976568600,2.523568603515625,-0.29543399810791016,-0.012536000460386276,0.1569489985704422
1776592603996128800,2.543128662109375,-0.6881600022315979,-0.025477999821305275,0.13557399809360504
1776592604015691300,2.562691162109375,-0.7538939714431763,-0.2714950144290924,-0.03219600021839142
1776592604035250700,2.582250732421875,-0.28941598534584045,-0.3615710139274597,0.03600800037384033
1776592604054811400,2.601811279296875,-0.2901490032672882,-0.19197599589824677,0.2427310049533844
1776592604074372000,2.6213720703125,-0.37393099069595337,-0.09500899910926819,0.38134899735450745
1776592604093929700,2.6409296875,-0.21270300447940826,-0.07858800143003464,0.29669299721717834
1776592604113487600,2.660487548828125,0.01673099957406521,-0.06283500045537949,0.2716220021247864
1776592604133050000,2.680050048828125,0.17832200229167938,-0.04917699843645096,0.3869450092315674
1776592604152614000,2.69961376953125,0.17622099816799164,0.033247001469135284,0.3445180058479309
1776592604172175400,2.71917529296875,0.17403900623321533,0.2917810082435608,0.4616529941558838
1776592604191738400,2.73873828125,0.00979200005531311,0.21282300353050232,0.41497498750686646
1776592604211300000,2.758300048828125,0.01076200045645237,0.2024800032377243,0.2867960035800934
1776592604230860800,2.77786083984375,-0.30050501227378845,0.10207100212574005,0.15925799310207367
1776592604250424600,2.797424560546875,-0.38026100397109985,-0.06719599664211273,0.1177700012922287
1776592604269990100,2.816990234375,-0.44672098755836487,-0.08497399836778641,0.3125460147857666
1776592604289558800,2.836558837890625,-0.37724000215530396,0.04785500094294548,0.6714720129966736
1776592604309126700,2.856126708984375,-0.21291400492191315,0.03227100148797035,0.6317710280418396
1776592604328691000,2.87569091796875,-0.44436898827552795,-0.12408600002527237,0.6092100143432617
1776592604348256300,2.89525634765625,-0.526943027973175,-0.0654349997639656,0.5559669733047485
1776592604367821600,2.914821533203125,-0.21611300110816956,0.17368100583553314,0.7180709838867188
1776592604387384600,2.934384521484375,0.48839300870895386,0.08594299852848053,0.6349400281906128
1776592604406945800,2.95394580078125,0.6335340142250061,-0.0007009999826550484,0.4827989935874939
1776592604426506000,2.973506103515625,0.16484299302101135,0.08078300207853317,0.4048849940299988
1776592604446064400,2.993064453125,-0.39900699257850647,0.2286739945411682,0.4836469888687134
1776592604465618700,3.01261865234375,-0.23988300561904907,0.21815499663352966,0.49910101294517517
1776592604485172700,3.0321728515625,0.06933700293302536,0.053328998386859894,0.5158420205116272
1776592604504733200,3.051733154296875,0.21439899504184723,-0.04195699840784073,0.5184029936790466
1776592604524297000,3.071296875,0.371755987405777,-0.05332399904727936,0.6929429769515991
1776592604543861500,3.090861572265625,0.7589550018310547,-0.2938069999217987,0.615231990814209
1776592604563422700,3.110422607421875,0.5042499899864197,-0.21603499352931976,0.6157619953155518
1776592604582983700,3.129983642578125,0.2606790065765381,-0.20759299397468567,0.5335609912872314
1776592604602548000,3.1495478515625,0.24588200449943542,-0.03609500080347061,0.5994589924812317
1776592604622114300,3.1691142578125,0.14791899919509888,-0.009975999593734741,0.5154079794883728
1776592604641683700,3.18868359375,-0.09957700222730637,-0.06748700141906738,0.28675198554992676
1776592604661248500,3.20824853515625,-0.03202899917960167,-0.11537099629640579,0.1375119984149933
1776592604680807200,3.22780712890625,-0.12513099610805511,-0.03381599858403206,0.31476300954818726
1776592604700366300,3.247366455078125,-0.28385499119758606,0.1356080025434494,0.5831850171089172
1776592604719927600,3.266927490234375,-0.2917090058326721,0.28536099195480347,0.7719249725341797
1776592604739490600,3.286490478515625,-0.0682540014386177,0.1284399926662445,0.6554120182991028
1776592604759052500,3.306052490234375,0.3168550133705139,0.0348300002515316,0.513979971408844
1776592604778614500,3.325614501953125,0.14750699698925018,0.10905200242996216,0.7105110287666321
1776592604798178600,3.345178466796875,-0.09785100072622299,0.17173300683498383,0.7118650078773499
1776592604817742800,3.364742919921875,-0.11349499970674515,0.21671900153160095,0.7056260108947754
1776592604837306600,3.384306640625,0.10180000215768814,0.12593400478363037,0.5374799966812134
1776592604856871700,3.40387158203125,0.4804230034351349,0.027204999700188637,0.3757520020008087
1776592604876436700,3.423436767578125,0.5454390048980713,-0.06565800309181213,0.38229900598526
1776592604896002300,3.443002197265625,-0.4102649986743927,0.006506999954581261,0.463470995426178
1776592604915563800,3.462563720703125,-0.7389429807662964,0.07914900034666061,0.7122650146484375
1776592604935122200,3.4821220703125,-0.29096299409866333,-0.17390300333499908,0.419717013835907
1776592604954681300,3.501681396484375,0.9468470215797424,-0.4882729947566986,0.36302199959754944
1776592604974241500,3.521241455078125,1.1740690469741821,-0.4735260009765625,0.5372310280799866
1776592604993805300,3.540805419921875,-0.11373499780893326,-0.13432499766349792,0.8025869727134705
1776592605013368300,3.560368408203125,-0.8332949876785278,-0.02538900077342987,0.8804240226745605
1776592605032931000,3.57993115234375,-0.47987401485443115,-0.000009999999747378752,0.7999910116195679
1776592605052492000,3.599491943359375,0.9053999781608582,-0.20646700263023376,0.6300060153007507
1776592605072052000,3.619052001953125,1.5787500143051147,-0.26315999031066895,0.4655529856681824
1776592605091613400,3.638613525390625,0.602616012096405,-0.07842200249433517,0.6801620125770569
1776592605111175200,3.658175048828125,-0.37328699231147766,0.3994610011577606,0.9641929864883423
1776592605130738000,3.677738037109375,-0.3409999907016754,0.32238999009132385,0.7984319925308228
1776592605150301000,3.697301025390625,0.49540001153945923,-0.06017399951815605,0.3078539967536926
1776592605169862700,3.716862548828125,0.7745069861412048,-0.06226399913430214,0.2995060086250305
1776592605189424400,3.73642431640625,0.03582699969410896,0.07958000153303146,0.6003980040550232
1776592605208986600,3.755986572265625,-0.38700100779533386,0.2954930067062378,0.838591992855072
1776592605228547300,3.77554736328125,-0.31899601221084595,0.13659299910068512,0.7336390018463135
1776592605248106200,3.795106201171875,-0.031177999451756477,-0.19253799319267273,0.42159900069236755
1776592605267666000,3.814666015625,0.5698090195655823,-0.2852169871330261,0.5211009979248047
1776592605287229000,3.83422900390625,0.45840299129486084,-0.12557099759578705,0.7647640109062195
1776592605306791700,3.853791748046875,-0.20332400500774384,-0.05628899857401848,0.8358849883079529
1776592605326352100,3.87335205078125,-0.5545709729194641,0.029030999168753624,0.8355029821395874
1776592605345912600,3.89291259765625,-0.2793070077896118,-0.04595300182700157,0.8380939960479736
1776592605365469200,3.91246923828125,0.38877299427986145,-0.1070839986205101,0.756380021572113
1776592605385027000,3.932027099609375,0.6591269969940186,-0.1029919981956482,0.9016910195350647
1776592605404588000,3.951588134765625,0.06953000277280807,0.04818600043654442,0.8947529792785645
1776592605424146200,3.971146240234375,-0.4522489905357361,0.04787899926304817,0.8072260022163391
1776592605443704300,3.990704345703125,-0.26621100306510925,0.12622399628162384,0.8835020065307617
1776592605463265500,4.010265625,0.325300008058548,-0.04192499816417694,0.8603919744491577
1776592605482825000,4.029824951171875,0.8168420195579529,-0.1139959990978241,0.8451470136642456
1776592605502382000,4.049382080078125,0.6791419982910156,-0.04952099919319153,0.9095659852027893
1776592605521938000,4.06893798828125,0.3889029920101166,0.02900400012731552,0.9585310220718384
1776592605541498600,4.08849853515625,0.47224700450897217,0.027799999341368675,1.0116300582885742
1776592605561058600,4.10805859375,0.9523440003395081,-0.11953800171613693,0.9548259973526001
1776592605580614700,4.12761474609375,1.636644959449768,-0.11287400126457214,0.895937979221344
1776592605600172800,4.1471728515625,1.614048957824707,-0.03562900051474571,1.0564939975738525
1776592605619733500,4.1667333984375,1.1877650022506714,-0.026138000190258026,0.9795050024986267
1776592605639297000,4.186297119140625,1.2966740131378174,-0.01571599952876568,0.8147090077400208
1776592605658855400,4.20585546875,1.476410984992981,0.07190500199794769,0.811519980430603
1776592605678410800,4.22541064453125,1.648682951927185,0.16656999289989471,0.7848640084266663
1776592605697967600,4.244967529296875,1.6494699716567993,0.015873000025749207,0.6069920063018799
1776592605717528000,4.264528076171875,1.9736659526824951,0.027347000315785408,0.6784660220146179
1776592605737085400,4.28408544921875,1.5741389989852905,0.11896000057458878,0.6603729724884033
1776592605756640000,4.303639892578125,0.9576489925384521,0.125791996717453,0.582207977771759
1776592605776197000,4.323197021484375,1.2017279863357544,0.12859900295734406,0.499112993478775
1776592605795760000,4.342760009765625,1.2873769998550415,0.047582998871803284,0.3586690127849579
1776592605815324700,4.36232470703125,1.0662620067596436,0.12831899523735046,0.47464698553085327
1776592605834884600,4.381884521484375,1.1675280332565308,-0.02463199943304062,0.5077559947967529
1776592605854444000,4.401444091796875,1.128208041191101,-0.1104239970445633,0.40279099345207214
1776592605874000100,4.421000244140625,0.6165480017662048,0.035509999841451645,0.6181319952011108
1776592605893556000,4.440555908203125,0.354638010263443,0.032345000654459,0.6904870271682739
1776592605913112600,4.460112548828125,0.6430330276489258,0.11058299988508224,0.6880139708518982
1776592605932671700,4.479671630859375,1.2456209659576416,-0.04220300167798996,0.6069909930229187
1776592605952232200,4.499232177734375,1.8262360095977783,-0.042920999228954315,0.5225620269775391
1776592605971792100,4.518792236328125,1.5473099946975708,-0.042093001306056976,0.498432993888855
1776592605991350300,4.538350341796875,0.47093498706817627,0.19012899696826935,0.6494079828262329
1776592606010896100,4.557896240234375,0.25559699535369873,0.18992100656032562,0.4786590039730072
1776592606030443300,4.577443359375,1.141332983970642,0.1072079986333847,0.2278199940919876
1776592606050000000,4.596999755859375,2.083338975906372,-0.04289399832487106,0.06841400265693665
1776592606069556200,4.61655615234375,2.2517549991607666,-0.12335500121116638,0.20621100068092346
1776592606089112600,4.636112548828125,1.3063559532165527,-0.12080500274896622,-0.045062001794576645
1776592606108671000,4.6556708984375,0.44158101081848145,0.19404199719429016,0.39077499508857727
1776592606128229600,4.675229736328125,0.45590999722480774,0.3472509980201721,0.3935700058937073
1776592606147787300,4.694787353515625,1.0054069757461548,0.11937300115823746,0.2314320057630539
1776592606167344000,4.71434423828125,1.699355959892273,-0.1090409979224205,-0.011452999897301197
1776592606186900000,4.73389990234375,1.934425950050354,-0.10742499679327011,0.15969200432300568
1776592606206454500,4.75345458984375,1.3891539573669434,0.2868250012397766,0.40620699524879456
1776592606226010000,4.773010009765625,0.5361109972000122,0.5131869912147522,0.34401899576187134
1776592606245564200,4.792564208984375,0.16458599269390106,0.5002539753913879,0.2852329909801483
1776592606265118500,4.812118408203125,0.9663310050964355,0.24619899690151215,0.30994001030921936
1776592606284675000,4.831675048828125,1.30684494972229,-0.09486500173807144,0.17355899512767792
1776592606304231200,4.851231201171875,1.2493640184402466,-0.05606900155544281,0.12476199865341187
1776592606323791600,4.87079150390625,0.9857890009880066,-0.0005779999773949385,0.164110004901886
1776592606343351800,4.890351806640625,0.8700399994850159,-0.10186000168323517,0.19182200729846954
1776592606362904800,4.90990478515625,0.6597539782524109,-0.1815979927778244,0.082225002348423
1776592606382457600,4.92945751953125,0.7597280144691467,-0.2560639977455139,-0.20067399740219116
1776592606402014200,4.94901416015625,1.1914349794387817,-0.3125090003013611,-0.31422901153564453
1776592606421574000,4.968573974609375,1.6075210571289062,-0.27990099787712097,-0.26190000772476196
1776592606441131500,4.988131591796875,1.3203070163726807,-0.014631999656558037,0.10372000187635422
1776592606460691200,5.007691162109375,0.7034040093421936,0.09692800045013428,0.07532700151205063
1776592606480253000,5.0272529296875,0.6454560160636902,0.12137699872255325,-0.033261001110076904
1776592606499811600,5.0468115234375,1.3514809608459473,-0.008046000264585018,-0.12910200655460358
1776592606519371800,5.066371826171875,1.2748620510101318,0.0744979977607727,0.15691399574279785
1776592606538932500,5.085932373046875,1.1176849603652954,0.15945999324321747,0.14431099593639374
1776592606558490600,5.10549072265625,0.9791120290756226,0.46648699045181274,0.12083899974822998
1776592606578044700,5.125044677734375,1.2417939901351929,0.3644619882106781,-0.21513700485229492
1776592606597603800,5.144603759765625,1.9325079917907715,0.18944600224494934,-0.1712619960308075
1776592606617164800,5.164164794921875,2.4398460388183594,-0.3071709871292114,-0.5921019911766052
1776592606636718800,5.18371875,2.506316900253296,-0.3867729902267456,-0.6841989755630493
1776592606656268800,5.203268798828125,1.6149909496307373,0.3006359934806824,-0.15731699764728546
1776592606675821600,5.222821533203125,2.5740480422973633,0.29642900824546814,-0.168163001537323
1776592606695379200,5.242379150390625,3.4778640270233154,-0.2395929992198944,-0.9574289917945862
1776592606714939400,5.261939453125,3.0902609825134277,-0.2192070037126541,-0.695152997970581
1776592606734498800,5.281498779296875,1.4684900045394897,0.19228799641132355,-0.4332680106163025
1776592606754057700,5.3010576171875,0.3042890131473541,0.03803199902176857,-0.47966399788856506
1776592606773616600,5.32061669921875,0.13338600099086761,-0.10865999758243561,-0.36200499534606934
1776592606793172200,5.340172119140625,0.6183900237083435,-0.41489100456237793,-0.5578680038452148
1776592606812726300,5.359726318359375,1.471351981163025,-0.8810830116271973,-0.2116989940404892
1776592606832284700,5.37928466796875,0.7129989862442017,-0.6878589987754822,0.1328970044851303
1776592606851846100,5.39884619140625,-0.4681510031223297,-0.23559099435806274,0.24359799921512604
1776592606871409000,5.418408935546875,0.10461399704217911,0.13731400668621063,-0.29272499680519104
1776592606890974200,5.43797412109375,2.160090923309326,0.3333060145378113,-0.27184900641441345
1776592606910538000,5.4575380859375,1.6090099811553955,0.4413059949874878,-0.0828000009059906
1776592606930100500,5.4771005859375,0.325298011302948,0.4544070065021515,-0.30110299587249756
1776592606949663000,5.4966630859375,1.0905959606170654,0.4377239942550659,-0.3446579873561859
1776592606969225700,5.516225830078125,0.8799999952316284,-0.31083500385284424,-0.7117769718170166
1776592606988787500,5.535787353515625,0.26451700925827026,-0.7913219928741455,-0.613070011138916
1776592607008341800,5.555341796875,-0.7365900278091431,-0.8893529772758484,-0.6593999862670898
1776592607027890200,5.57489013671875,-0.514385998249054,-0.5692930221557617,-0.48026201128959656
1776592607047445200,5.5944453125,0.5304530262947083,-0.6144729852676392,-0.4551349878311157
1776592607067006000,5.614005859375,0.32479798793792725,-0.6168419718742371,-0.8080189824104309
1776592607086567000,5.63356689453125,-0.07793699949979782,0.10854600369930267,-0.3184489905834198
1776592607106130400,5.65313037109375,-1.1683930158615112,1.1197930574417114,0.5637909770011902
1776592607125691600,5.672691650390625,-2.2995190620422363,1.3019989728927612,0.7000269889831543
1776592607145252600,5.692252685546875,-1.1959739923477173,0.7914779782295227,0.20376700162887573
1776592607164817000,5.71181689453125,1.4653470516204834,0.034244000911712646,-0.47179800271987915
1776592607184376000,5.7313759765625,2.848067045211792,-0.5942909717559814,-0.9630450010299683
1776592607203929600,5.7509296875,1.1393970251083374,-0.5677220225334167,-0.580702006816864
1776592607223483400,5.7704833984375,-1.5560719966888428,-0.3732460141181946,-0.034999001771211624
1776592607243040300,5.790040283203125,-2.371661901473999,-0.3805670142173767,-0.19207599759101868
1776592607262595000,5.809594970703125,-0.8295339941978455,-0.16897700726985931,-0.09414499998092651
1776592607282148000,5.829148193359375,0.5668460130691528,0.29004400968551636,-0.07577899843454361
1776592607301701000,5.848701171875,1.1129989624023438,0.48108699917793274,-0.38136500120162964
1776592607321258800,5.8682587890625,1.1449110507965088,0.5843120217323303,0.08986900001764297
1776592607340817000,5.88781689453125,-0.004778999835252762,0.5050020217895508,0.4787769913673401
1776592607360378000,5.907378173828125,-1.9613250494003296,-0.15264399349689484,-0.4005669951438904
1776592607379940400,5.9269404296875,-2.3505818843841553,-0.03181900084018707,0.06610500067472458
1776592607399497700,5.946497802734375,-2.3701119422912598,0.1614609956741333,0.43537798523902893
1776592607419056000,5.96605615234375,-2.6846230030059814,0.1368820071220398,0.43824300169944763
1776592607438619400,5.985619384765625,-2.7045419216156006,-0.03316500037908554,0.33516401052474976
1776592607458181000,6.00518115234375,-1.6322389841079712,-0.18063099682331085,0.09938400238752365
1776592607477739300,6.0247392578125,-0.45521000027656555,-0.022281000390648842,-0.11024300009012222
1776592607497302300,6.04430224609375,0.6351289749145508,-0.016262000426650047,-0.23073899745941162
1776592607516865500,6.063865478515625,0.8052819967269897,0.1496949940919876,-0.25580599904060364
1776592607536425500,6.083425537109375,0.03667699918150902,0.46079400181770325,-0.11855500191450119
1776592607555986700,6.102986572265625,-0.5990189909934998,0.6041139960289001,-0.18841199576854706
1776592607575545300,6.12254541015625,0.07595399767160416,0.4379349946975708,-0.1869249939918518
1776592607595102200,6.142102294921875,0.8110510110855103,-0.06694599986076355,-0.5793589949607849
1776592607614661400,6.161661376953125,0.36288100481033325,-0.16425299644470215,-0.42700499296188354
1776592607634220500,6.181220458984375,-1.4039809703826904,0.04233799874782562,-0.2623499929904938
1776592607653776600,6.200776611328125,-2.724576950073242,0.4159719944000244,-0.12614500522613525
1776592607673332000,6.22033203125,-2.594780921936035,0.6289520263671875,0.016652999445796013
1776592607692889300,6.239889404296875,-1.860327959060669,0.13761299848556519,-0.32146400213241577
1776592607712450600,6.259450439453125,-1.533460021018982,-0.41686001420021057,-0.8231589794158936
1776592607732011800,6.27901171875,-2.4078938961029053,-0.027990000322461128,-0.36809301376342773
1776592607751575600,6.298575439453125,-2.9141690731048584,0.585752010345459,0.16335099935531616
1776592607771142700,6.318142578125,-2.4887421131134033,0.3394869863986969,-0.06923600286245346
1776592607790701300,6.337701416015625,-0.7929790019989014,-0.38196900486946106,-0.6871160268783569
1776592607810257200,6.357257080078125,0.3108539879322052,-0.38651400804519653,-0.44146600365638733
1776592607829814000,6.37681396484375,-0.21059100329875946,0.012920999899506569,-0.3430570065975189
1776592607849372700,6.39637255859375,-0.9152010083198547,0.24470800161361694,-0.2454269975423813
1776592607868933000,6.41593310546875,-1.0131750106811523,0.16255700588226318,-0.48313799500465393
1776592607888493800,6.435493896484375,-0.9022420048713684,-0.06470199674367905,-0.6185070276260376
1776592607908055800,6.455055908203125,-0.6534019708633423,-0.05555399879813194,-0.6055650115013123
1776592607927619600,6.47461962890625,-0.5139189958572388,0.2675659954547882,-0.5256860256195068
1776592607947183000,6.49418310546875,-1.4543609619140625,0.4218220114707947,-0.5127230286598206
1776592607966747400,6.513747314453125,-1.9377870559692383,0.17496199905872345,-0.559935986995697
1776592607986311000,6.533310791015625,-0.9801089763641357,0.07780899852514267,-0.6139569878578186
1776592608005874400,6.55287451171875,-0.8894810080528259,0.5363600254058838,-0.3511050045490265
1776592608025440800,6.572440673828125,-0.8711230158805847,0.5070499777793884,-0.5507379770278931
1776592608045003500,6.59200341796875,-1.1721570491790771,0.38436898589134216,-0.8288159966468811
1776592608064565800,6.611565673828125,-2.2324299812316895,0.25874701142311096,-0.8676220178604126
1776592608084125200,6.631125244140625,-2.177767038345337,0.14974099397659302,-0.9663249850273132
1776592608103683300,6.650683349609375,-0.880611002445221,-0.1977829933166504,-0.9083489775657654
1776592608123246800,6.670246826171875,0.4126960039138794,-0.3851889967918396,-1.013139009475708
1776592608142812700,6.689812744140625,0.1867939978837967,-0.6226459741592407,-1.581686019897461
1776592608162374100,6.7093740234375,-1.1406259536743164,-0.36343199014663696,-1.356503963470459
1776592608181931800,6.728931884765625,-2.564434051513672,-0.14477600157260895,-1.2197500467300415
1776592608201491500,6.748491455078125,-1.2231580018997192,-0.08057399839162827,-1.0642989873886108
1776592608221053200,6.76805322265625,0.3251659870147705,-0.4084950089454651,-1.5358550548553467
1776592608240615700,6.78761572265625,-0.9981480240821838,-0.033569999039173126,-1.4527230262756348
1776592608260172500,6.807172607421875,-3.4194700717926025,0.15007999539375305,-1.0145740509033203
1776592608279724800,6.826724853515625,-2.6600890159606934,0.09202100336551666,-0.7848309874534607
1776592608299277300,6.84627734375,0.388588011264801,-0.1467829942703247,-0.9013670086860657
1776592608318833700,6.865833740234375,0.7133190035820007,0.101671002805233,-1.3096719980239868
1776592608338398000,6.88539794921875,-1.0810190439224243,0.2589400112628937,-1.7660709619522095
1776592608357963000,6.904962890625,-3.6387228965759277,0.4661940038204193,-1.2904679775238037
1776592608377524500,6.9245244140625,-3.228005886077881,0.05544000118970871,-1.4309109449386597
1776592608397084200,6.944084228515625,0.9950399994850159,-0.27834799885749817,-1.1937060356140137
1776592608416643000,6.96364306640625,2.4820001125335693,-0.271016001701355,-1.3071240186691284
1776592608436201000,6.983200927734375,0.34785300493240356,-0.33619600534439087,-2.1314868927001953
1776592608455760400,7.002760498046875,-3.485167980194092,0.3892289996147156,-1.3586210012435913
1776592608475321600,7.022321533203125,-4.230177879333496,0.31925299763679504,-1.2671010494232178
1776592608494879500,7.04187939453125,0.24857300519943237,0.09823500365018845,-0.8030670285224915
1776592608514438400,7.0614384765625,2.5019888877868652,-0.054430000483989716,-1.1401560306549072
1776592608534000000,7.081000244140625,-0.35305699706077576,-0.04696600139141083,-1.8826969861984253
1776592608553559000,7.10055908203125,-4.378861904144287,0.6180859804153442,-1.0463720560073853
1776592608573117200,7.1201171875,-3.565201997756958,0.4867990016937256,-0.6051639914512634
1776592608592677400,7.139677490234375,0.4156840145587921,0.1348170042037964,-0.21942700445652008
1776592608612240600,7.15924072265625,0.7507380247116089,0.3358280062675476,-0.10111500322818756
1776592608631804700,7.1788046875,-1.8652119636535645,-0.165242001414299,-1.6867389678955078
1776592608651366400,7.198366455078125,-2.737675905227661,-0.37364599108695984,-1.2695839405059814
1776592608670926300,7.21792626953125,0.20038500428199768,-0.3225330114364624,-0.9497159719467163
1776592608690485000,7.237485107421875,0.7489259839057922,-0.44203901290893555,-1.0711829662322998
1776592608710046700,7.257046630859375,-1.2350389957427979,0.28867200016975403,-0.5938659906387329
1776592608729610800,7.27661083984375,-2.4509599208831787,0.29770299792289734,-0.7235779762268066
1776592608749170000,7.296169921875,-1.2372390031814575,-0.4727639853954315,-1.634827971458435
1776592608768727600,7.3157275390625,1.9435900449752808,-0.7806450128555298,-1.5535039901733398
1776592608788286700,7.33528662109375,2.714729070663452,-0.49575498700141907,-1.5123649835586548
1776592608807843000,7.354843017578125,-0.6080350279808044,0.41029199957847595,-1.0055559873580933
1776592608827397600,7.374397705078125,-3.099889039993286,0.6428139805793762,-1.0658520460128784
1776592608846952200,7.3939521484375,-1.7533409595489502,0.002633000025525689,-1.5993789434432983
1776592608866508500,7.413508544921875,0.5407199859619141,0.14628799259662628,-1.1933430433273315
1776592608886071600,7.433071533203125,-0.17279300093650818,0.30662599205970764,-1.11416494846344
1776592608905632300,7.45263232421875,-1.818721055984497,0.6320340037345886,-0.2398419976234436
1776592608925189000,7.472189208984375,-1.029425024986267,0.10005299746990204,-0.8651779890060425
1776592608944745500,7.491745361328125,0.6037319898605347,-0.4214969873428345,-1.1800589561462402
1776592608964301800,7.5113017578125,0.5042120218276978,-0.5013750195503235,-1.1365200281143188
1776592608983861500,7.530861572265625,-0.24448899924755096,-0.03998899832367897,-0.5498189926147461
1776592609003420000,7.550419921875,-1.1493639945983887,0.3547529876232147,-0.07157699763774872
1776592609022980900,7.56998095703125,-0.17801199853420258,0.12548500299453735,-0.6747869849205017
1776592609042543400,7.58954345703125,0.6439890265464783,-0.34071698784828186,-1.2835899591445923
1776592609062103000,7.60910302734375,0.43105098605155945,-0.3243829905986786,-1.3405640125274658
1776592609081662500,7.628662353515625,-0.3952760100364685,0.00355300004594028,-0.986810028553009
1776592609101225000,7.648224853515625,-1.3026310205459595,0.17684400081634521,-0.8053979873657227
1776592609120787000,7.667786865234375,-1.2681989669799805,0.2523379921913147,-0.7489910125732422
1776592609140345600,7.687345703125,-1.379349946975708,0.021927999332547188,-1.163470983505249
1776592609159904300,7.706904296875,-1.271710991859436,0.011411000043153763,-0.8498160243034363
1776592609179461600,7.726461669921875,0.01701200008392334,-0.08695299923419952,-0.9543949961662292
1776592609199018200,7.746018310546875,0.1299010068178177,-0.10369300097227097,-0.8243619799613953
1776592609218573800,7.76557373046875,-1.1086889505386353,0.05217399820685387,-0.9105079770088196
1776592609238131000,7.785130859375,-2.252500057220459,0.4976629912853241,-0.47193801403045654
1776592609257691400,7.80469140625,-1.6824619770050049,0.4736649990081787,-0.3544990122318268
1776592609277256000,7.824255859375,0.45044198632240295,0.06348299980163574,-0.6470620036125183
1776592609296822300,7.843822265625,2.5934200286865234,-0.43261298537254333,-1.259930968284607
1776592609316386800,7.86338671875,0.9610459804534912,-0.12919500470161438,-1.1664999723434448
1776592609335949300,7.88294921875,-2.087791919708252,0.2553269863128662,-0.9030719995498657
1776592609355510300,7.90251025390625,-2.616076946258545,0.3929469883441925,-0.7901570200920105
1776592609375070700,7.92207080078125,0.15160499513149261,0.15131700038909912,-0.6644669771194458
1776592609394634800,7.941634765625,1.8142180442810059,-0.08605100214481354,-0.766677975654602
1776592609414197200,7.961197265625,-0.06708499789237976,-0.17239299416542053,-0.8772439956665039
1776592609433757000,7.9807568359375,-1.8544859886169434,0.04334000125527382,-0.3914949893951416
1776592609453320400,8.000320556640625,-0.824347972869873,-0.04510900005698204,-0.142317995429039
1776592609472883500,8.019883544921875,0.9779989719390869,-0.3590100109577179,-0.23762300610542297
1776592609492443100,8.039443115234375,1.3730820417404175,-0.576528012752533,-0.6288210153579712
1776592609512001300,8.059001220703125,-0.19424299895763397,-0.15215200185775757,-0.4432240128517151
1776592609531562500,8.0785625,-0.8220369815826416,-0.04370100051164627,-0.23630599677562714
1776592609551128000,8.098128173828124,0.1981319934129715,-0.019116999581456184,-0.4269309937953949
1776592609570687000,8.11768701171875,1.1360249519348145,-0.22110800445079803,-0.7582989931106567
1776592609590240000,8.137239990234375,-0.2824609875679016,-0.04099399968981743,-0.6273409724235535
1776592609609793800,8.156793701171875,-1.7677040100097656,0.058625999838113785,-0.557964026927948
1776592609629350000,8.176349853515624,-0.8274809718132019,0.21445000171661377,-0.24770699441432953
1776592609648909000,8.195908935546875,0.5757139921188354,0.06556399911642075,-0.21739999949932098
1776592609668470800,8.215470703125,-0.04997900128364563,-0.018146000802516937,-0.40236300230026245
1776592609688031200,8.23503125,-0.8250200152397156,-0.02637000009417534,-0.4940739870071411
1776592609707592200,8.25459228515625,-0.3598009943962097,0.18861599266529083,-0.21225999295711517
1776592609727151400,8.2741513671875,0.8953740000724792,0.02081499993801117,-0.25174999237060547
1776592609746709800,8.293709716796876,0.038694001734256744,-0.15630599856376648,-0.36520999670028687
1776592609766269400,8.31326953125,-1.6089650392532349,-0.23139500617980957,-0.4938279986381531
1776592609785828000,8.332828125,-1.5271070003509521,-0.005942999850958586,-0.1446709930896759
1776592609805388300,8.35238818359375,-0.5872830152511597,0.07027599960565567,0.05056000128388405
1776592609824945200,8.371945068359375,0.6653460264205933,-0.17692500352859497,-0.31606799364089966
1776592609844501000,8.3915009765625,0.6636959910392761,-0.40268298983573914,-0.5971469879150391
1776592609864061200,8.411061279296876,0.11602900177240372,-0.30743300914764404,-0.2491299957036972
1776592609883624200,8.430624267578125,0.26213499903678894,-0.20601299405097961,-0.13537800312042236
1776592609903187000,8.45018701171875,0.25725600123405457,-0.1101439967751503,-0.1053209975361824
1776592609922748700,8.469748779296875,0.3326700031757355,-0.30597400665283203,-0.46682998538017273
1776592609942315800,8.489315673828125,0.09408999979496002,-0.2680850028991699,-0.26643699407577515
1776592609961882000,8.508882080078125,-0.6205229759216309,-0.0037879999727010727,-0.002179000061005354
1776592609981442600,8.528442626953124,-0.3936760127544403,0.18326899409294128,0.252485990524292
1776592610001000700,8.548000732421874,-0.08294100314378738,0.19511400163173676,0.1848209947347641
1776592610020562000,8.56756201171875,0.16088800132274628,-0.0309820007532835,-0.11909300088882446
1776592610040125700,8.587125732421875,0.22911599278450012,0.03545999899506569,0.046599000692367554
1776592610059685400,8.606685302734375,-0.000048999998398358,0.18698899447917938,0.26752299070358276
1776592610079245800,8.626245849609376,-0.1458120048046112,0.16786299645900726,0.3264999985694885
1776592610098809000,8.64580908203125,0.08762399852275848,-0.07270800322294235,-0.22919400036334991
1776592610118367200,8.6653671875,0.17161400616168976,-0.24710899591445923,-0.24238799512386322
1776592610137926000,8.68492578125,0.009185999631881714,-0.02035599946975708,-0.09904800355434418
1776592610157488400,8.70448828125,-0.14002299308776855,0.05879100039601326,0.1275710016489029
1776592610177050600,8.724050537109376,0.009898999705910683,-0.09054800122976303,-0.025763999670743942
1776592610196606200,8.743606201171875,0.1718740016222,-0.24532899260520935,-0.3347190022468567
1776592610216158700,8.76315869140625,0.4815959930419922,-0.3078930079936981,-0.08838699758052826
1776592610235715600,8.782715576171874,0.5462679862976074,0.024313999339938164,0.2368129938840866
1776592610255274500,8.8022744140625,-0.001446999958716333,-0.026945000514388084,0.012215999886393547
1776592610274834400,8.82183447265625,-0.3175300061702728,-0.0920960009098053,-0.14581499993801117
1776592610294395100,8.84139501953125,-0.78302001953125,0.07185199856758118,0.021741999313235283
