time,seconds_elapsed,z,y,x
1776592601854399200,0.401399169921875,0.04699400067329407,-0.005799000151455402,0.09648899734020233
1776592601864181200,0.41118115234375,0.05508299916982651,0.008090999908745289,0.055939000099897385
1776592601883740700,0.43074072265625,0.08619900047779083,0.016769999638199806,0.03158099949359894
1776592601903296000,0.4502958984375,0.11105500161647797,0.019727999344468117,0.018518000841140747
1776592601922856700,0.469856689453125,0.11825300008058548,0.017090000212192535,0.0015219999477267265
1776592601942418000,0.48941796875,0.12047600001096725,0.0012440000427886844,-0.014716999605298042
1776592601961976000,0.50897607421875,0.14492200314998627,-0.015296000055968761,-0.0012959999730810523
1776592601981533700,0.52853369140625,0.1567710041999817,-0.018936999142169952,0.007978999987244606
1776592602001096200,0.54809619140625,0.1543319970369339,-0.015324000269174576,0.012279000133275986
1776592602020660000,0.567659912109375,0.14472900331020355,-0.015630999580025673,0.018283000215888023
1776592602040219400,0.587219482421875,0.11323200166225433,-0.010276000015437603,0.02145100012421608
1776592602059780600,0.606780517578125,0.07265900075435638,0.01447600033134222,0.019721999764442444
1776592602079343400,0.62634326171875,0.03444800153374672,0.034790001809597015,0.012079999782145023
1776592602098901000,0.64590087890625,0.006676999852061272,0.02154799923300743,0.009825999848544598
1776592602118456000,0.6654560546875,-0.05750599876046181,-0.006984000094234943,0.005898999981582165
1776592602138010000,0.685010009765625,-0.08870600163936615,-0.015953000634908676,0.005822000093758106
1776592602157565000,0.70456494140625,-0.06884100288152695,-0.022921999916434288,0.015793999657034874
1776592602177124400,0.724124267578125,-0.033601999282836914,-0.03359299898147583,0.028680000454187393
1776592602196685300,0.743685302734375,-0.022043999284505844,-0.03788499906659126,0.033479999750852585
1776592602216246800,0.763246826171875,-0.015188000164926052,-0.03282099962234497,0.03218499943614006
1776592602235808500,0.78280859375,-0.007015999872237444,-0.025095999240875244,0.025776999071240425
1776592602255365400,0.802365478515625,-0.020219000056385994,-0.01708099991083145,0.01875399984419346
1776592602274923300,0.82192333984375,-0.03849299997091293,0.0038300000596791506,0.007627000100910664
1776592602294484200,0.841484130859375,-0.08508499711751938,0.014577999711036682,-0.017240000888705254
1776592602314042600,0.861042724609375,-0.09981299936771393,0.007280000019818544,-0.016385000199079514
1776592602333598700,0.8805986328125,-0.06914699822664261,0.001361000002361834,-0.0002749999985098839
1776592602353151000,0.90015087890625,-0.042844001203775406,0.002856000093743205,0.011884000152349472
1776592602372704800,0.919704833984375,-0.012027000077068806,0.0064570000395178795,0.03245599940419197
1776592602392261600,0.93926171875,0.014410999603569508,0.009612999856472015,0.034040000289678574
1776592602411818500,0.958818603515625,0.022406000643968582,0.008143999613821507,0.028689999133348465
1776592602431379700,0.978379638671875,0.023777000606060028,0.0018619999755173922,0.029097000136971474
1776592602450939600,0.997939697265625,0.013992000371217728,0.004844999872148037,0.02011200040578842
1776592602470498800,1.017498779296875,-0.007300000172108412,0.012165999971330166,-0.006149999797344208
1776592602490061600,1.0370615234375,-0.022074000909924507,0.0053400001488626,-0.026530999690294266
1776592602509623600,1.05662353515625,-0.018571000546216965,-0.001841000048443675,-0.020596999675035477
1776592602529177900,1.076177734375,-0.016909999772906303,-0.0030590000096708536,-0.010847000405192375
1776592602548731000,1.09573095703125,-0.0274679996073246,0.0001449999981559813,-0.011896999552845955
1776592602568288800,1.115288818359375,-0.05810900032520294,0.00599699979647994,-0.0181489996612072
1776592602587850200,1.134850341796875,-0.05888200178742409,0.002839999971911311,-0.021683000028133392
1776592602607415300,1.154415283203125,-0.0359329991042614,-0.000004999999873689376,-0.015622000209987164
1776592602626978800,1.173978759765625,-0.01533500012010336,-0.004614000208675861,-0.008791999891400337
1776592602646539000,1.1935390625,0.043678998947143555,0.006405999884009361,-0.004288000054657459
1776592602666097700,1.21309765625,0.08573299646377563,0.01030800025910139,0.002366000087931752
1776592602685655600,1.232655517578125,0.07177100330591202,-0.000893999997060746,0.0037430000957101583
1776592602705215500,1.252215576171875,0.046587999910116196,-0.012451999820768833,-0.0012710000155493617
1776592602724776400,1.2717763671875,0.029935000464320183,-0.01682800054550171,-0.00802099984139204
1776592602744336600,1.291336669921875,-0.01222699973732233,-0.01169199962168932,-0.025892000645399094
1776592602763899100,1.310899169921875,-0.03569300100207329,-0.010240999981760979,-0.03304800018668175
1776592602783464700,1.330464599609375,-0.017503000795841217,-0.009096000343561172,-0.016018999740481377
1776592602803031000,1.350031005859375,0.013295000419020653,-0.006653999909758568,-0.00812000036239624
1776592602822593300,1.36959326171875,0.043542999774217606,-0.0020910000894218683,0.00817899964749813
1776592602842152200,1.389152099609375,0.060405001044273376,0.003456000005826354,0.027202000841498375
1776592602861712400,1.40871240234375,0.07532999664545059,0.00041199999395757914,0.04632300138473511
1776592602881269800,1.428269775390625,0.09677399694919586,-0.016784999519586563,0.07970699667930603
1776592602900830500,1.44783056640625,0.07491300255060196,-0.019497999921441078,0.06526699662208557
1776592602920393700,1.467393798828125,0.043097998946905136,-0.01500099990516901,0.05047599971294403
1776592602939951900,1.486951904296875,0.002515000058338046,-0.01586499996483326,0.03471900150179863
1776592602959514600,1.5065146484375,-0.04035399854183197,-0.020083000883460045,0.02464199997484684
1776592602979078400,1.526078369140625,-0.06861499696969986,-0.023749999701976776,0.01726900041103363
1776592602998638800,1.545638916015625,-0.07437899708747864,-0.021548999473452568,0.007619000039994717
1776592603018198500,1.565198486328125,-0.06860200315713882,-0.0124080004170537,-0.017273999750614166
1776592603037757000,1.5847568359375,-0.0395519994199276,-0.005853000096976757,-0.017568999901413918
1776592603057311500,1.6043115234375,-0.003217000048607588,-0.004786000121384859,-0.006130999885499477
1776592603076867000,1.6238671875,0.06029200181365013,-0.000039999998989515007,0.007763000205159187
1776592603096428800,1.6434287109375,0.09885100275278091,0.008624999783933163,0.018503999337553978
1776592603115989800,1.66298974609375,0.09596800059080124,0.01094099972397089,0.01596199907362461
1776592603135550500,1.682550537109375,0.06735999882221222,0.009991000406444073,0.013372999615967274
1776592603155110400,1.7021103515625,0.046473998576402664,0.011272000148892403,0.010232999920845032
1776592603174665000,1.7216650390625,0.0018980000168085098,0.04088800027966499,0.0019839999731630087
1776592603194219500,1.741219482421875,-0.05817500129342079,0.04434499889612198,-0.024581000208854675
1776592603213771800,1.760771728515625,-0.09271500259637833,0.03357899934053421,-0.04440300166606903
1776592603233328000,1.780328125,-0.1121549978852272,0.019941000267863274,-0.03734299913048744
1776592603252892200,1.79989208984375,-0.10172899812459946,0.009801999665796757,-0.019113000482320786
1776592603272452600,1.81945263671875,-0.09502299875020981,-0.003891000058501959,-0.018834000453352928
1776592603292011800,1.83901171875,-0.08289600163698196,-0.01038500014692545,-0.022489000111818314
1776592603311572500,1.858572509765625,-0.06894399970769882,-0.0066559999249875546,-0.021539999172091484
1776592603331135700,1.8781357421875,-0.06612399965524673,-0.006008999887853861,-0.031567998230457306
1776592603350700800,1.89770068359375,-0.046243999153375626,-0.004503999836742878,-0.05591600015759468
1776592603370265300,1.917265380859375,-0.03949600085616112,-0.004397999960929155,-0.06132899969816208
1776592603389831700,1.936831787109375,-0.06842199712991714,-0.008628999814391136,-0.07488799840211868
1776592603409396500,1.956396484375,-0.07699199765920639,-0.003031000029295683,-0.07485499978065491
1776592603428955600,1.97595556640625,-0.08271999657154083,0.00022899999748915434,-0.06081699952483177
1776592603448512800,1.9955126953125,-0.11623299866914749,-0.0054350001737475395,-0.034807998687028885
1776592603468072400,2.015072509765625,-0.11148200184106827,-0.005582000128924847,-0.01980699971318245
1776592603487637800,2.0346376953125,-0.05289100110530853,0.012782000005245209,0.010022999718785286
1776592603507204400,2.054204345703125,-0.009984999895095825,0.030115999281406403,0.027323000133037567
1776592603526765300,2.073765380859375,0.04472300037741661,0.03410499915480614,0.053605999797582626
1776592603546325000,2.093324951171875,0.11334100365638733,0.039831001311540604,0.05193699896335602
1776592603565883600,2.112883544921875,0.13570599257946014,0.040984999388456345,0.03005100041627884
1776592603585439000,2.13243896484375,0.11201000213623047,0.032795000821352005,0.02608500048518181
1776592603604998100,2.151998046875,0.07269400358200073,0.023367000743746758,0.021438000723719597
1776592603624555800,2.1715556640625,0.054457999765872955,0.014592999592423439,0.02425600029528141
1776592603644108800,2.19110888671875,0.0011690000537782907,0.00001700000029813964,0.026309000328183174
1776592603663662600,2.21066259765625,-0.037445999681949615,-0.014870000071823597,0.034967001527547836
1776592603683217700,2.2302177734375,-0.01515199989080429,-0.015737000852823257,0.0603020004928112
1776592603702775000,2.249775146484375,-0.00017699999443721026,-0.013278000056743622,0.06011899933218956
1776592603722332000,2.269331787109375,-0.0008420000085607171,-0.0069989999756217,0.04839299991726875
1776592603741887700,2.2888876953125,-0.007555999793112278,-0.0026209999341517687,0.033642999827861786
1776592603761442000,2.308442138671875,-0.020306000486016273,0.006858000066131353,0.020695000886917114
1776592603780997400,2.327997314453125,-0.04088199883699417,0.04135100170969963,0.011594999581575394
1776592603800555300,2.34755517578125,-0.06761399656534195,0.07540400326251984,0.006496000103652477
1776592603820112100,2.367112060546875,-0.08640699833631516,0.08778999745845795,-0.00784400012344122
1776592603839667700,2.386667724609375,-0.06712599843740463,0.07985900342464447,-0.014542000368237495
1776592603859220700,2.406220703125,-0.04464999958872795,0.07303500175476074,-0.022254999727010727
1776592603878778000,2.425778076171875,-0.040752001106739044,0.07506100088357925,-0.028178000822663307
1776592603898335200,2.445335205078125,-0.03805999830365181,0.0884919986128807,-0.052609000355005264
1776592603917891300,2.464891357421875,-0.04337900131940842,0.09006399661302567,-0.08165699988603592
1776592603937453300,2.484453369140625,-0.04786600172519684,0.08501999825239182,-0.08261600136756897
1776592603957013000,2.504012939453125,-0.04291300103068352,0.08545500040054321,-0.06858199834823608
1776592603976568600,2.523568603515625,-0.06860499829053879,0.09325399994850159,-0.06411600112915039
1776592603996128800,2.543128662109375,-0.12897099554538727,0.09133200347423553,-0.07082899659872055
1776592604015691300,2.562691162109375,-0.14512300491333008,0.0649000033736229,-0.07815899699926376
1776592604035250700,2.582250732421875,-0.0858049988746643,0.05294499918818474,-0.028071999549865723
1776592604054811400,2.601811279296875,-0.0047889999113976955,0.055208999663591385,0.05119600147008896
1776592604074372000,2.6213720703125,0.027581000700592995,0.06455100327730179,0.08349999785423279
1776592604093929700,2.6409296875,0.02556999959051609,0.10006199777126312,0.08442600071430206
1776592604113487600,2.660487548828125,0.017449000850319862,0.14147000014781952,0.0799809992313385
1776592604133050000,2.680050048828125,-0.00829199980944395,0.19017399847507477,0.0688140019774437
1776592604152614000,2.69961376953125,-0.017726000398397446,0.22377300262451172,0.07715000212192535
1776592604172175400,2.71917529296875,-0.03041199967265129,0.23778800666332245,0.061521999537944794
1776592604191738400,2.73873828125,-0.06397199630737305,0.23115600645542145,-0.002937000012025237
1776592604211300000,2.758300048828125,-0.09131599962711334,0.22594499588012695,-0.06679599732160568
1776592604230860800,2.77786083984375,-0.1008640006184578,0.21963399648666382,-0.1012670025229454
1776592604250424600,2.797424560546875,-0.06648100167512894,0.1960729956626892,-0.09643500298261642
1776592604269990100,2.816990234375,-0.013949999585747719,0.1831900030374527,-0.09027600288391113
1776592604289558800,2.836558837890625,0.022440999746322632,0.1920810043811798,-0.08791100233793259
1776592604309126700,2.856126708984375,0.04188600182533264,0.2191769927740097,-0.07906799763441086
1776592604328691000,2.87569091796875,0.04823800176382065,0.24157199263572693,-0.06977099925279617
1776592604348256300,2.89525634765625,0.05573999881744385,0.300244003534317,-0.044520001858472824
1776592604367821600,2.914821533203125,0.036692000925540924,0.3855530023574829,-0.03188199922442436
1776592604387384600,2.934384521484375,0.014631999656558037,0.43634700775146484,-0.032701000571250916
1776592604406945800,2.95394580078125,0.02556000091135502,0.4301129877567291,-0.022068999707698822
1776592604426506000,2.973506103515625,0.05994100123643875,0.40317100286483765,-0.0007800000021234155
1776592604446064400,2.993064453125,0.05632700026035309,0.3664819896221161,-0.023572999984025955
1776592604465618700,3.01261865234375,0.03538599982857704,0.34459900856018066,-0.07002700120210648
1776592604485172700,3.0321728515625,0.0344650000333786,0.3415699899196625,-0.08108600229024887
1776592604504733200,3.051733154296875,0.041127000004053116,0.34602999687194824,-0.07109999656677246
1776592604524297000,3.071296875,0.03904400020837784,0.38092100620269775,-0.060701001435518265
1776592604543861500,3.090861572265625,0.036681000143289566,0.41639798879623413,-0.04847799986600876
1776592604563422700,3.110422607421875,0.05774899944663048,0.43184301257133484,-0.016454000025987625
1776592604582983700,3.129983642578125,0.08707399666309357,0.440216988325119,0.05235699936747551
1776592604602548000,3.1495478515625,0.07642299681901932,0.44976699352264404,0.11524000018835068
1776592604622114300,3.1691142578125,0.014661000110208988,0.43914398550987244,0.13326700031757355
1776592604641683700,3.18868359375,-0.029580000787973404,0.3959139883518219,0.12776100635528564
1776592604661248500,3.20824853515625,-0.057982999831438065,0.32807600498199463,0.10908500105142593
1776592604680807200,3.22780712890625,-0.07145799696445465,0.25590699911117554,0.07228600233793259
1776592604700366300,3.247366455078125,-0.07731799781322479,0.21667300164699554,0.03765299916267395
1776592604719927600,3.266927490234375,-0.08413100242614746,0.2140049934387207,0.005423000082373619
1776592604739490600,3.286490478515625,-0.1056710034608841,0.2513119876384735,-0.025942999869585037
1776592604759052500,3.306052490234375,-0.12459900230169296,0.31363698840141296,-0.043129999190568924
1776592604778614500,3.325614501953125,-0.13180600106716156,0.35155200958251953,-0.053082000464200974
1776592604798178600,3.345178466796875,-0.14493100345134735,0.41843000054359436,-0.07700099796056747
1776592604817742800,3.364742919921875,-0.14710499346256256,0.44515299797058105,-0.0928570032119751
1776592604837306600,3.384306640625,-0.11746200174093246,0.42972999811172485,-0.08788599818944931
1776592604856871700,3.40387158203125,-0.06792400032281876,0.4046970009803772,-0.065591000020504
1776592604876436700,3.423436767578125,-0.03379800170660019,0.38740599155426025,-0.04473700001835823
1776592604896002300,3.443002197265625,-0.02232000045478344,0.3515560030937195,-0.04458000138401985
1776592604915563800,3.462563720703125,-0.02069300040602684,0.3392089903354645,-0.041944000869989395
1776592604935122200,3.4821220703125,-0.011566000059247017,0.3141869902610779,-0.03702700138092041
1776592604954681300,3.501681396484375,0.043296001851558685,0.3065199851989746,-0.0007239999831654131
1776592604974241500,3.521241455078125,0.08445200324058533,0.3198919892311096,0.0787929967045784
1776592604993805300,3.540805419921875,0.052866000682115555,0.34776899218559265,0.13112600147724152
1776592605013368300,3.560368408203125,-0.005055000074207783,0.40303298830986023,0.14509999752044678
1776592605032931000,3.57993115234375,-0.02697799913585186,0.43673598766326904,0.14291000366210938
1776592605052492000,3.599491943359375,-0.009726000018417835,0.48896801471710205,0.13982999324798584
1776592605072052000,3.619052001953125,0.0034809999633580446,0.5346279740333557,0.1344660073518753
1776592605091613400,3.638613525390625,0.004149000160396099,0.5365539789199829,0.10626599937677383
1776592605111175200,3.658175048828125,0.04015899822115898,0.5365750193595886,0.054896000772714615
1776592605130738000,3.677738037109375,0.03419800102710724,0.5423799753189087,-0.002735000103712082
1776592605150301000,3.697301025390625,0.03855200111865997,0.5278319716453552,-0.021573999896645546
1776592605169862700,3.716862548828125,0.03820100054144859,0.49584999680519104,-0.027803000062704086
1776592605189424400,3.73642431640625,0.002452000044286251,0.4341840147972107,-0.05722000077366829
1776592605208986600,3.755986572265625,-0.043164998292922974,0.41337400674819946,-0.07913099974393845
1776592605228547300,3.77554736328125,-0.06461899727582932,0.40425100922584534,-0.0755229964852333
1776592605248106200,3.795106201171875,-0.07700999826192856,0.35105401277542114,-0.05090299993753433
1776592605267666000,3.814666015625,-0.07263500243425369,0.34830498695373535,-0.02122100070118904
1776592605287229000,3.83422900390625,-0.06169300153851509,0.3920699954032898,0.015724999830126762
1776592605306791700,3.853791748046875,-0.056366998702287674,0.44424399733543396,0.03736799955368042
1776592605326352100,3.87335205078125,-0.037331998348236084,0.45752501487731934,0.04136599972844124
1776592605345912600,3.89291259765625,-0.001630999962799251,0.44723400473594666,0.04293899983167648
1776592605365469200,3.91246923828125,0.006407999899238348,0.47526198625564575,0.034598998725414276
1776592605385027000,3.932027099609375,-0.002437999937683344,0.500531017780304,0.019456999376416206
1776592605404588000,3.951588134765625,-0.004410000052303076,0.5142729878425598,0.007350000087171793
1776592605424146200,3.971146240234375,0.01394800003618002,0.5069230198860168,-0.01321099977940321
1776592605443704300,3.990704345703125,0.018247000873088837,0.5148069858551025,-0.033966999500989914
1776592605463265500,4.010265625,0.014630000106990337,0.5465070009231567,-0.03530900180339813
1776592605482825000,4.029824951171875,0.00006900000153109431,0.5825319886207581,-0.021719999611377716
1776592605502382000,4.049382080078125,-0.006144000217318535,0.587677001953125,-0.018410999327898026
1776592605521938000,4.06893798828125,-0.02031799964606762,0.605705976486206,-0.005758999846875668
1776592605541498600,4.08849853515625,-0.05827400088310242,0.6775519847869873,0.03208199888467789
1776592605561058600,4.10805859375,-0.06569000333547592,0.7729189991950989,0.06293600052595139
1776592605580614700,4.12761474609375,-0.04909899830818176,0.8806700110435486,0.07921099662780762
1776592605600172800,4.1471728515625,-0.031488001346588135,0.9620260000228882,0.08049099892377853
1776592605619733500,4.1667333984375,-0.017928000539541245,1.009837031364441,0.072502002120018
1776592605639297000,4.186297119140625,-0.002623999956995249,1.0757590532302856,0.07199300080537796
1776592605658855400,4.20585546875,0.006498000118881464,1.1060309410095215,0.07185400277376175
1776592605678410800,4.22541064453125,0.015845000743865967,1.181730031967163,0.07380499690771103
1776592605697967600,4.244967529296875,0.02037999965250492,1.18618905544281,0.06577499955892563
1776592605717528000,4.264528076171875,0.01782899908721447,1.180372953414917,0.06117499992251396
1776592605737085400,4.28408544921875,0.008445999585092068,1.1715079545974731,0.058788001537323
1776592605756640000,4.303639892578125,-0.014138000085949898,1.123782992362976,0.05479000136256218
1776592605776197000,4.323197021484375,-0.044762998819351196,1.0816349983215332,0.05884300172328949
1776592605795760000,4.342760009765625,-0.06597799807786942,1.0164599418640137,0.07319699972867966
1776592605815324700,4.36232470703125,-0.11064700037240982,0.9426190257072449,0.10865800082683563
1776592605834884600,4.381884521484375,-0.1516920030117035,0.8501700162887573,0.14374500513076782
1776592605854444000,4.401444091796875,-0.16346600651741028,0.7767680287361145,0.1584330052137375
1776592605874000100,4.421000244140625,-0.15557199716567993,0.745930016040802,0.15837399661540985
1776592605893556000,4.440555908203125,-0.12154299765825272,0.7062029838562012,0.12756699323654175
1776592605913112600,4.460112548828125,-0.09286600351333618,0.6730020046234131,0.08679699897766113
1776592605932671700,4.479671630859375,-0.0629810020327568,0.6771119832992554,0.062174998223781586
1776592605952232200,4.499232177734375,-0.03247800096869469,0.7445409893989563,0.04299100115895271
1776592605971792100,4.518792236328125,-0.004579000174999237,0.8405129909515381,0.016087999567389488
1776592605991350300,4.538350341796875,0.013636999763548374,0.8579170107841492,-0.015780000016093254
1776592606010896100,4.557896240234375,0.015758000314235687,0.8254740238189697,-0.029704000800848007
1776592606030443300,4.577443359375,0.007120999973267317,0.8445420265197754,-0.02131599932909012
1776592606050000000,4.596999755859375,0.0025690000038594007,0.917057991027832,-0.003481999970972538
1776592606069556200,4.61655615234375,0.004327999893575907,0.9628049731254578,0.010267999954521656
1776592606089112600,4.636112548828125,0.01690799929201603,0.9107869863510132,-0.00042699999175965786
1776592606108671000,4.6556708984375,0.02187100052833557,0.8882020115852356,-0.005690000019967556
1776592606128229600,4.675229736328125,0.02098199911415577,0.8778550028800964,-0.0020959998946636915
1776592606147787300,4.694787353515625,0.011963999830186367,0.9132199883460999,0.015204000286757946
1776592606167344000,4.71434423828125,0.0012710000155493617,0.9215499758720398,0.030202999711036682
1776592606186900000,4.73389990234375,-0.019300999119877815,0.8871870040893555,0.05752300098538399
1776592606206454500,4.75345458984375,-0.04847000166773796,0.8308370113372803,0.0934239998459816
1776592606226010000,4.773010009765625,-0.09272100031375885,0.785643994808197,0.1338369995355606
1776592606245564200,4.792564208984375,-0.1474580019712448,0.7452449798583984,0.15459999442100525
1776592606265118500,4.812118408203125,-0.20086899399757385,0.7393059730529785,0.16835199296474457
1776592606284675000,4.831675048828125,-0.21601000428199768,0.7163469791412354,0.16424599289894104
1776592606304231200,4.851231201171875,-0.20992200076580048,0.6451870203018188,0.13939599692821503
1776592606323791600,4.87079150390625,-0.17194299399852753,0.5902529954910278,0.10955099761486053
1776592606343351800,4.890351806640625,-0.12746399641036987,0.6259480118751526,0.09269300103187561
1776592606362904800,4.90990478515625,-0.06928300112485886,0.700721025466919,0.07735499739646912
1776592606382457600,4.92945751953125,0.0675479993224144,0.6976600289344788,0.012048999778926373
1776592606402014200,4.94901416015625,0.16013100743293762,0.6760010123252869,-0.03717099875211716
1776592606421574000,4.968573974609375,0.190760999917984,0.7021390199661255,-0.040421999990940094
1776592606441131500,4.988131591796875,0.1799210011959076,0.7453280091285706,-0.010080000385642052
1776592606460691200,5.007691162109375,0.14616400003433228,0.7367839813232422,0.02078700065612793
1776592606480253000,5.0272529296875,0.11376799643039703,0.7327479720115662,0.041701000183820724
1776592606499811600,5.0468115234375,0.09042999893426895,0.8163419961929321,0.06097700074315071
1776592606519371800,5.066371826171875,0.05408100038766861,0.8262519836425781,0.061103999614715576
1776592606538932500,5.085932373046875,0.023950999602675438,0.7860490083694458,0.05872400104999542
1776592606558490600,5.10549072265625,-0.0672919973731041,0.6973419785499573,0.07429700344800949
1776592606578044700,5.125044677734375,-0.13402700424194336,0.6841009855270386,0.0989769995212555
1776592606597603800,5.144603759765625,-0.14897200465202332,0.8254050016403198,0.13029100000858307
1776592606617164800,5.164164794921875,-0.1091729998588562,1.0751190185546875,0.15606600046157837
1776592606636718800,5.18371875,-0.06408599764108658,1.2954909801483154,0.1891160011291504
1776592606656268800,5.203268798828125,-0.04656499996781349,1.344081997871399,0.21985800564289093
1776592606675821600,5.222821533203125,-0.02465599961578846,1.530418038368225,0.2805509865283966
1776592606695379200,5.242379150390625,0.07558699697256088,1.8386850357055664,0.29427799582481384
1776592606714939400,5.261939453125,0.12389399856328964,1.991150975227356,0.2924860119819641
1776592606734498800,5.281498779296875,0.09911199659109116,1.8217029571533203,0.261013001203537
1776592606754057700,5.3010576171875,0.0588809996843338,1.471930980682373,0.19859899580478668
1776592606773616600,5.32061669921875,0.036448001861572266,1.242097020149231,0.14594900608062744
1776592606793172200,5.340172119140625,0.056120000779628754,1.0365420579910278,0.05955300107598305
1776592606812726300,5.359726318359375,0.059324000030756,0.8355479836463928,-0.002088000066578388
1776592606832284700,5.37928466796875,0.16484299302101135,0.6782280206680298,-0.16611100733280182
1776592606851846100,5.39884619140625,0.25643301010131836,0.46994200348854065,-0.32998400926589966
1776592606871409000,5.418408935546875,0.22895799577236176,0.31450599431991577,-0.33705300092697144
1776592606890974200,5.43797412109375,0.16991199553012848,0.35335299372673035,-0.24323999881744385
1776592606910538000,5.4575380859375,0.09126300364732742,0.5269690155982971,-0.08265399932861328
1776592606930100500,5.4771005859375,0.04248400032520294,0.5295689702033997,-0.01718599908053875
1776592606949663000,5.4966630859375,-0.10012800246477127,0.5568820238113403,0.1676959991455078
1776592606969225700,5.516225830078125,-0.15325799584388733,0.6867939829826355,0.2672620117664337
1776592606988787500,5.535787353515625,-0.1211019977927208,0.7237849831581116,0.23739199340343475
1776592607008341800,5.555341796875,-0.023990999907255173,0.6414920091629028,0.10143200308084488
1776592607027890200,5.57489013671875,0.06714999675750732,0.4298650026321411,-0.0678969994187355
1776592607047445200,5.5944453125,0.18158599734306335,0.3279159963130951,-0.20755499601364136
1776592607067006000,5.614005859375,0.35789600014686584,0.2856230139732361,-0.4091399908065796
1776592607086567000,5.63356689453125,0.3844980001449585,0.17493799328804016,-0.44887301325798035
1776592607106130400,5.65313037109375,0.2361290007829666,-0.053637001663446426,-0.30658799409866333
1776592607125691600,5.672691650390625,-0.03701699897646904,-0.3608570098876953,-0.028219999745488167
1776592607145252600,5.692252685546875,-0.17380400002002716,-0.49380001425743103,0.12643900513648987
1776592607164817000,5.71181689453125,-0.28316301107406616,-0.4332680106163025,0.3134880065917969
1776592607184376000,5.7313759765625,-0.2698189914226532,-0.28457000851631165,0.3394030034542084
1776592607203929600,5.7509296875,-0.18585500121116638,-0.025289999321103096,0.29653200507164
1776592607223483400,5.7704833984375,-0.1146949976682663,0.109265998005867,0.23555399477481842
1776592607243040300,5.790040283203125,0.051628001034259796,0.1269879937171936,0.03859899938106537
1776592607262595000,5.809594970703125,0.27197399735450745,0.16640399396419525,-0.17978499829769135
1776592607282148000,5.829148193359375,0.28960099816322327,0.13245800137519836,-0.1476210057735443
1776592607301701000,5.848701171875,0.17452499270439148,-0.05424400046467781,-0.042479999363422394
1776592607321258800,5.8682587890625,0.10426999628543854,-0.19803699851036072,0.002266000024974346
1776592607340817000,5.88781689453125,0.01449500024318695,-0.11293900012969971,0.16533300280570984
1776592607360378000,5.907378173828125,-0.10059399902820587,-0.08278000354766846,0.33226001262664795
1776592607379940400,5.9269404296875,-0.12728500366210938,-0.1075109988451004,0.3538770079612732
1776592607399497700,5.946497802734375,-0.13560199737548828,-0.5891550183296204,0.20037299394607544
1776592607419056000,5.96605615234375,-0.13055799901485443,-1.287848949432373,-0.056529998779296875
1776592607438619400,5.985619384765625,-0.10858199745416641,-1.3769489526748657,-0.14330799877643585
1776592607458181000,6.00518115234375,-0.04382999986410141,-1.6481120586395264,-0.36376699805259705
1776592607477739300,6.0247392578125,-0.025140000507235527,-1.461217999458313,-0.3639479875564575
1776592607497302300,6.04430224609375,-0.016184000298380852,-1.0696929693222046,-0.2622720003128052
1776592607516865500,6.063865478515625,-0.014767000451683998,-0.775551974773407,-0.16548900306224823
1776592607536425500,6.083425537109375,-0.021355999633669853,-0.3307099938392639,-0.012357000261545181
1776592607555986700,6.102986572265625,-0.024738000705838203,0.0322129987180233,0.10814700275659561
1776592607575545300,6.12254541015625,-0.07934500277042389,0.171765998005867,0.20525600016117096
1776592607595102200,6.142102294921875,-0.11658100038766861,0.2612540125846863,0.28527700901031494
1776592607614661400,6.161661376953125,-0.10347700119018555,0.20836099982261658,0.3074119985103607
1776592607634220500,6.181220458984375,-0.07832799851894379,0.13104599714279175,0.3111189901828766
1776592607653776600,6.200776611328125,-0.08248600363731384,-0.5400019884109497,0.17624400556087494
1776592607673332000,6.22033203125,-0.0785290002822876,-0.775111973285675,0.10705500096082687
1776592607692889300,6.239889404296875,-0.0685340017080307,-1.0613590478897095,0.020229000598192215
1776592607712450600,6.259450439453125,-0.04799700155854225,-1.3298070430755615,-0.06694000214338303
1776592607732011800,6.27901171875,-0.04362700134515762,-1.6659890413284302,-0.18580999970436096
1776592607751575600,6.298575439453125,-0.08284199982881546,-1.8121429681777954,-0.2597559988498688
1776592607771142700,6.318142578125,-0.0733800008893013,-1.6961549520492554,-0.3110640048980713
1776592607790701300,6.337701416015625,-0.051461998373270035,-1.3932520151138306,-0.29005199670791626
1776592607810257200,6.357257080078125,0.015014000236988068,-1.0854159593582153,-0.2757030129432678
1776592607829814000,6.37681396484375,0.04475099965929985,-0.8869760036468506,-0.23594099283218384
1776592607849372700,6.39637255859375,0.00937000010162592,-0.7375180125236511,-0.16167199611663818
1776592607868933000,6.41593310546875,0.011548000387847424,-0.6624900102615356,-0.1395380049943924
1776592607888493800,6.435493896484375,0.04501799866557121,-0.5293779969215393,-0.11146499961614609
1776592607908055800,6.455055908203125,0.05962900072336197,-0.406717985868454,-0.0698930025100708
1776592607927619600,6.47461962890625,0.056616999208927155,-0.36430901288986206,-0.03828100115060806
1776592607947183000,6.49418310546875,0.006796000059694052,-0.448294997215271,-0.011378999799489975
1776592607966747400,6.513747314453125,-0.08563899993896484,-0.7957929968833923,-0.022221999242901802
1776592607986311000,6.533310791015625,-0.07205300033092499,-0.8984019756317139,-0.03474099934101105
1776592608005874400,6.55287451171875,-0.10477200150489807,-0.8990190029144287,-0.0027119999285787344
1776592608025440800,6.572440673828125,-0.18474499881267548,-0.8932430148124695,0.04637499898672104
1776592608045003500,6.59200341796875,-0.24662399291992188,-0.9625059962272644,0.07272099703550339
1776592608064565800,6.611565673828125,-0.2484010010957718,-1.0626729726791382,0.06343899667263031
1776592608084125200,6.631125244140625,-0.22742299735546112,-1.114179015159607,0.048500001430511475
1776592608103683300,6.650683349609375,-0.1829809993505478,-1.1230759620666504,0.02924799919128418
1776592608123246800,6.670246826171875,-0.12647299468517303,-0.9985100030899048,0.02880699932575226
1776592608142812700,6.689812744140625,0.009120999835431576,-0.8986139893531799,-0.007826999761164188
1776592608162374100,6.7093740234375,0.23269400000572205,-0.8427000045776367,-0.08080799877643585
1776592608181931800,6.728931884765625,0.3836750090122223,-0.8520539999008179,-0.1350950002670288
1776592608201491500,6.748491455078125,0.4212619960308075,-0.8452929854393005,-0.1428609937429428
1776592608221053200,6.76805322265625,0.433351993560791,-0.7775710225105286,-0.11748799681663513
1776592608240615700,6.78761572265625,0.3920249938964844,-0.9464049935340881,-0.12863300740718842
1776592608260172500,6.807172607421875,0.23303599655628204,-1.6188169717788696,-0.22553199529647827
1776592608279724800,6.826724853515625,0.142303004860878,-1.6018279790878296,-0.18653400242328644
1776592608299277300,6.84627734375,0.08782000094652176,-1.2538939714431763,-0.08762100338935852
1776592608318833700,6.865833740234375,0.06745000183582306,-1.1135770082473755,-0.04786200076341629
1776592608338398000,6.88539794921875,0.05085499957203865,-0.9895380139350891,-0.005840000230818987
1776592608357963000,6.904962890625,-0.10261400043964386,-1.6661969423294067,-0.13273200392723083
1776592608377524500,6.9245244140625,-0.0948759987950325,-1.5585739612579346,-0.11544699966907501
1776592608397084200,6.944084228515625,-0.060989998281002045,-1.3136210441589355,-0.07135500013828278
1776592608416643000,6.96364306640625,0.10352999716997147,-0.9119340181350708,-0.036198001354932785
1776592608436201000,6.983200927734375,0.2123119980096817,-0.9200059771537781,-0.10971599817276001
1776592608455760400,7.002760498046875,0.2996490001678467,-1.264814019203186,-0.2407509982585907
1776592608475321600,7.022321533203125,0.29537299275398254,-1.2532639503479004,-0.24751700460910797
1776592608494879500,7.04187939453125,0.23790399730205536,-1.0243899822235107,-0.17371200025081635
1776592608514438400,7.0614384765625,0.17709599435329437,-0.8641960024833679,-0.10333900153636932
1776592608534000000,7.081000244140625,0.12952999770641327,-0.9798539876937866,-0.09913399815559387
1776592608553559000,7.10055908203125,-0.15646399557590485,-1.588690996170044,-0.24448999762535095
1776592608573117200,7.1201171875,-0.18205800652503967,-1.352942943572998,-0.1698320060968399
1776592608592677400,7.139677490234375,-0.20056599378585815,-0.992438018321991,-0.06928499788045883
1776592608612240600,7.15924072265625,-0.22800500690937042,-0.7946180105209351,-0.011152000166475773
1776592608631804700,7.1788046875,-0.26387399435043335,-1.2533940076828003,-0.10714100301265717
1776592608651366400,7.198366455078125,-0.2516160011291504,-1.202273964881897,-0.08867999911308289
1776592608670926300,7.21792626953125,-0.16468100249767303,-0.9633970260620117,-0.029510999098420143
1776592608690485000,7.237485107421875,0.19386300444602966,-0.5875589847564697,0.1428000032901764
1776592608710046700,7.257046630859375,0.13304199278354645,-0.5874540209770203,0.11357399821281433
1776592608729610800,7.27661083984375,0.15393200516700745,-1.1961469650268555,-0.06831000000238419
1776592608749170000,7.296169921875,0.20160900056362152,-1.0234040021896362,-0.08505800366401672
1776592608768727600,7.3157275390625,0.25192201137542725,-0.945019006729126,-0.08655499666929245
1776592608788286700,7.33528662109375,0.5188789963722229,-0.62636399269104,0.04134900122880936
1776592608807843000,7.354843017578125,0.4391080141067505,-0.5729609727859497,0.018637999892234802
1776592608827397600,7.374397705078125,0.17481400072574615,-1.0171289443969727,-0.19454999268054962
1776592608846952200,7.3939521484375,0.190079003572464,-0.9867650270462036,-0.16914699971675873
1776592608866508500,7.413508544921875,0.21831800043582916,-0.9486899971961975,-0.1322299987077713
1776592608886071600,7.433071533203125,0.19170400500297546,-0.8676379919052124,-0.10877399891614914
1776592608905632300,7.45263232421875,-0.254067987203598,-1.0276379585266113,-0.35028699040412903
1776592608925189000,7.472189208984375,-0.17885300517082214,-0.9260579943656921,-0.2895340025424957
1776592608944745500,7.491745361328125,-0.02613000012934208,-0.7985050082206726,-0.17518199980258942
1776592608964301800,7.5113017578125,0.08184000104665756,-0.64581698179245,-0.06870400160551071
1776592608983861500,7.530861572265625,0.09894999861717224,-0.5776699781417847,-0.036920998245477676
1776592609003420000,7.550419921875,0.07230299711227417,-0.49923399090766907,-0.030798999592661858
1776592609022980900,7.56998095703125,0.10168199986219406,-0.4894990026950836,-0.014074999839067459
1776592609042543400,7.58954345703125,0.16588300466537476,-0.5319589972496033,0.014980999752879143
1776592609062103000,7.60910302734375,0.17750400304794312,-0.5554100275039673,0.0347290001809597
1776592609081662500,7.628662353515625,0.13298800587654114,-0.5700910091400146,0.03073599934577942
1776592609101225000,7.648224853515625,0.09286600351333618,-0.6021940112113953,0.021045999601483345
1776592609120787000,7.667786865234375,0.05199100077152252,-0.6825670003890991,0.020207000896334648
1776592609140345600,7.687345703125,-0.0040799998678267,-0.7967010140419006,-0.004091999959200621
1776592609159904300,7.706904296875,-0.08843500167131424,-0.8069999814033508,-0.05046600103378296
1776592609179461600,7.726461669921875,-0.11923900246620178,-0.7460150122642517,-0.06469999998807907
1776592609199018200,7.746018310546875,-0.12185700237751007,-0.6955459713935852,-0.05977199971675873
1776592609218573800,7.76557373046875,-0.11153800040483475,-0.6894509792327881,-0.05666999891400337
1776592609238131000,7.785130859375,-0.08867300301790237,-0.6679850220680237,-0.08200900256633759
1776592609257691400,7.80469140625,-0.08272500336170197,-0.6047689914703369,-0.12201400101184845
1776592609277256000,7.824255859375,-0.0949850007891655,-0.5290650129318237,-0.13540099561214447
1776592609296822300,7.843822265625,-0.041143998503685,-0.503682017326355,-0.07119099795818329
1776592609316386800,7.86338671875,-0.027540000155568123,-0.4884929955005646,-0.039379000663757324
1776592609335949300,7.88294921875,-0.030150000005960464,-0.537742018699646,-0.055612001568078995
1776592609355510300,7.90251025390625,-0.02448599971830845,-0.6071670055389404,-0.06022299826145172
1776592609375070700,7.92207080078125,0.014283999800682068,-0.6610620021820068,-0.04881099984049797
1776592609394634800,7.941634765625,0.061163999140262604,-0.6603299975395203,-0.03043299913406372
1776592609414197200,7.961197265625,0.05971600115299225,-0.60098797082901,-0.03190099820494652
1776592609433757000,7.9807568359375,0.04321200028061867,-0.5133709907531738,-0.1271599978208542
1776592609453320400,8.000320556640625,0.14359000325202942,-0.4017319977283478,-0.1091959998011589
1776592609472883500,8.019883544921875,0.3188909888267517,-0.2893480062484741,0.058823999017477036
1776592609492443100,8.039443115234375,0.35721299052238464,-0.24180099368095398,0.12443900108337402
1776592609512001300,8.059001220703125,0.31874901056289673,-0.20841899514198303,0.13534000515937805
1776592609531562500,8.0785625,0.26121100783348083,-0.1828490048646927,0.12015099823474884
1776592609551128000,8.098128173828124,0.22812600433826447,-0.1828179955482483,0.11602800339460373
1776592609570687000,8.11768701171875,0.2697699964046478,-0.24653099477291107,0.16597400605678558
1776592609590240000,8.137239990234375,0.23776300251483917,-0.3094460070133209,0.14152799546718597
1776592609609793800,8.156793701171875,0.13563400506973267,-0.3404560089111328,0.05681400001049042
1776592609629350000,8.176349853515624,0.06932900100946426,-0.31922000646591187,0.024302000179886818
1776592609648909000,8.195908935546875,0.041030000895261765,-0.3083060085773468,0.009138000197708607
1776592609668470800,8.215470703125,-0.006471000146120787,-0.3119490146636963,-0.016711000353097916
1776592609688031200,8.23503125,-0.06809300184249878,-0.30324000120162964,-0.05348899960517883
1776592609707592200,8.25459228515625,-0.14924100041389465,-0.2674599885940552,-0.09356699883937836
1776592609727151400,8.2741513671875,-0.19943499565124512,-0.23385299742221832,-0.09008900076150894
1776592609746709800,8.293709716796876,-0.2017969936132431,-0.20794899761676788,-0.06476899981498718
1776592609766269400,8.31326953125,-0.17053300142288208,-0.2045460045337677,-0.032891999930143356
1776592609785828000,8.332828125,-0.14717699587345123,-0.20304100215435028,-0.03617500141263008
1776592609805388300,8.35238818359375,-0.12727199494838715,-0.17096899449825287,-0.029586000367999077
1776592609824945200,8.371945068359375,-0.07598000019788742,-0.1556980013847351,-0.004989999812096357
1776592609844501000,8.3915009765625,0.00009000000136438757,-0.1733510047197342,0.04160600155591965
1776592609864061200,8.411061279296876,0.03853999823331833,-0.17417599260807037,0.07937999814748764
1776592609883624200,8.430624267578125,0.06279700249433517,-0.15153999626636505,0.11353500187397003
1776592609903187000,8.45018701171875,0.09188999980688095,-0.1418759971857071,0.15698300302028656
1776592609922748700,8.469748779296875,0.1193389967083931,-0.16491800546646118,0.19992199540138245
1776592609942315800,8.489315673828125,0.1481350064277649,-0.17130699753761292,0.20096899569034576
1776592609961882000,8.508882080078125,0.1352429986000061,-0.1382399946451187,0.1662980020046234
1776592609981442600,8.528442626953124,0.09291700273752213,-0.09177400171756744,0.11138299852609634
1776592610001000700,8.548000732421874,0.06607600301504135,-0.05418799817562103,0.05214099958539009
1776592610020562000,8.56756201171875,0.045545000582933426,-0.03640900179743767,0.023615999147295952
1776592610040125700,8.587125732421875,-0.004825000185519457,0.0007730000070296228,-0.019562000408768654
1776592610059685400,8.606685302734375,-0.06938400119543076,0.06378699839115143,-0.08044800162315369
1776592610079245800,8.626245849609376,-0.10102099925279617,0.1157039999961853,-0.10999000072479248
1776592610098809000,8.64580908203125,-0.08609200268983841,0.10047800093889236,-0.09831699728965759
1776592610118367200,8.6653671875,-0.01825699955224991,0.051913999021053314,-0.04518299922347069
1776592610137926000,8.68492578125,0.01115499995648861,0.03186599910259247,-0.021271999925374985
1776592610157488400,8.70448828125,0.01920199953019619,0.027110999450087547,-0.010041000321507454
1776592610177050600,8.724050537109376,0.03394699841737747,0.01950100064277649,0.010836999863386154
1776592610196606200,8.743606201171875,0.08048299700021744,-0.027256999164819717,0.061769999563694
1776592610216158700,8.76315869140625,0.11624100059270859,-0.06436800211668015,0.11519300192594528
1776592610235715600,8.782715576171874,0.0821869969367981,-0.0402970016002655,0.09645400196313858
1776592610255274500,8.8022744140625,0.06894300132989883,-0.021602999418973923,0.08961000293493271
1776592610274834400,8.82183447265625,0.07866699993610382,-0.014646999537944794,0.09034500271081924
1776592610294395100,8.84139501953125,0.09576299786567688,-0.005024000070989132,0.07326100021600723
