time,seconds_elapsed,z,y,x
1776592912194682400,0.507682373046875,-0.10781200230121613,-0.01320900022983551,0.02725600078701973
1776592912204462300,0.51746240234375,-0.11841300129890442,-0.008276999928057194,0.004925000015646219
1776592912224025300,0.537025390625,-0.12205100059509277,-0.010630999691784382,-0.015010000206530094
1776592912243589000,0.556589111328125,-0.13385500013828278,-0.006717999931424856,-0.056129999458789825
1776592912263150300,0.576150390625,-0.12872299551963806,0.005284999962896109,-0.0790100023150444
1776592912282708200,0.595708251953125,-0.09761299937963486,0.02422500029206276,-0.06688699871301651
1776592912302260200,0.61526025390625,-0.01080700010061264,0.062261998653411865,-0.012006999924778938
1776592912321813200,0.634813232421875,0.09262499958276749,0.13450199365615845,0.06504199653863907
1776592912341374700,0.654374755859375,0.1553950011730194,0.22737400233745575,0.11631099879741669
1776592912360939500,0.673939453125,0.18515299260616302,0.278533011674881,0.14674000442028046
1776592912380509000,0.693509033203125,0.19783000648021698,0.27526000142097473,0.16176900267601013
1776592912400077000,0.7130771484375,0.20429100096225739,0.2630009949207306,0.16863800585269928
1776592912419638800,0.732638671875,0.17368300259113312,0.28568801283836365,0.1675020009279251
1776592912439200000,0.752199951171875,0.06616400182247162,0.30740100145339966,0.16173900663852692
1776592912458761000,0.771760986328125,-0.042381998151540756,0.3559820055961609,0.17667900025844574
1776592912478318800,0.79131884765625,-0.075314000248909,0.4884580075740814,0.23397600650787354
1776592912497875700,0.810875732421875,-0.0488240011036396,0.6746810078620911,0.30329200625419617
1776592912517434400,0.830434326171875,0.03195599839091301,0.8997020125389099,0.3927359879016876
1776592912536992300,0.8499921875,0.0852309986948967,1.0015050172805786,0.40870600938796997
1776592912556547000,0.869547119140625,0.1395310014486313,0.9858090281486511,0.3931550085544586
1776592912576104000,0.88910400390625,0.134770005941391,0.8861240148544312,0.3141080141067505
1776592912595666400,0.90866650390625,0.10564400255680084,0.8035849928855896,0.2283719927072525
1776592912615227100,0.92822705078125,0.05322999879717827,0.8170409798622131,0.15565800666809082
1776592912634785300,0.947785400390625,-0.0034310000482946634,0.8097919821739197,0.09174899756908417
1776592912654342000,0.967341796875,0.033868998289108276,0.8686469793319702,0.14094699919223785
1776592912673898500,0.9868984375,0.14695799350738525,1.1283890008926392,0.34210801124572754
1776592912693456600,1.00645654296875,0.1254429966211319,1.2595020532608032,0.47564899921417236
1776592912713013500,1.026013427734375,0.1546420007944107,1.4456080198287964,0.6050999760627747
1776592912732570600,1.045570556640625,0.1067420020699501,1.3462289571762085,0.5598919987678528
1776592912752128000,1.0651279296875,0.016596000641584396,1.3104079961776733,0.46775299310684204
1776592912771689500,1.084689453125,-0.07420100271701813,1.4030059576034546,0.3957749903202057
1776592912791253500,1.10425341796875,-0.14605200290679932,1.528419017791748,0.3469879925251007
1776592912810814500,1.123814453125,-0.13771000504493713,1.5839899778366089,0.34345901012420654
1776592912830375400,1.14337548828125,-0.12500399351119995,1.593654990196228,0.35245800018310547
1776592912849939000,1.16293896484375,-0.10645300149917603,1.5958659648895264,0.3820739984512329
1776592912869508600,1.182508544921875,0.06332100182771683,1.638085961341858,0.49008798599243164
1776592912889077200,1.2020771484375,0.1716970056295395,1.5604020357131958,0.5426290035247803
1776592912908641800,1.221641845703125,0.12541800737380981,1.401298999786377,0.5040510296821594
1776592912928202200,1.2412021484375,-0.06543900072574615,1.3175179958343506,0.421997994184494
1776592912947756300,1.26075634765625,-0.22469300031661987,1.2740299701690674,0.346574991941452
1776592912967312100,1.28031201171875,-0.24278700351715088,1.2224949598312378,0.31872400641441345
1776592912986870500,1.29987060546875,-0.06095600128173828,1.691467046737671,0.47342899441719055
1776592913006428400,1.319428466796875,0.07083799690008163,1.6958340406417847,0.5203319787979126
1776592913025988000,1.338988037109375,0.18671099841594696,1.7241729497909546,0.5833489894866943
1776592913045549000,1.358549072265625,0.26782599091529846,1.4641380310058594,0.5395600199699402
1776592913065112800,1.37811279296875,0.3682189881801605,1.1384680271148682,0.46737200021743774
1776592913084673800,1.397673828125,0.3639090061187744,0.9150660037994385,0.40564200282096863
1776592913104228900,1.417228759765625,0.289359986782074,0.6286680102348328,0.30981001257896423
1776592913123788000,1.4367880859375,0.1895889937877655,0.30454498529434204,0.20039500296115875
1776592913143351300,1.456351318359375,0.05222100019454956,0.1977899968624115,0.11443299800157547
1776592913162913000,1.4759130859375,-0.032517001032829285,0.1297609955072403,0.04476099833846092
1776592913182471400,1.495471435546875,-0.12174300104379654,0.10772799700498581,0.016262000426650047
1776592913202025200,1.515025146484375,-0.23334799706935883,0.09142100065946579,-0.0019859999883919954
1776592913221583600,1.53458349609375,-0.2820209860801697,0.03723900020122528,-0.007346999831497669
1776592913241148000,1.55414794921875,-0.29423800110816956,-0.02794400043785572,-0.0055240001529455185
1776592913260707800,1.573707763671875,-0.29107099771499634,-0.11345600336790085,-0.007930000312626362
1776592913280265200,1.59326513671875,-0.342754989862442,-0.483597993850708,-0.0626399964094162
1776592913299824600,1.61282470703125,-0.2411710023880005,-0.48120900988578796,-0.03557100147008896
1776592913319384600,1.632384521484375,-0.08251000195741653,-0.3870429992675781,0.0018520000157877803
1776592913338945800,1.65194580078125,0.052981000393629074,-0.38558200001716614,0.010355000384151936
1776592913358508000,1.671508056640625,0.11354199796915054,-0.3662889897823334,-0.0004140000091865659
1776592913378068700,1.69106884765625,0.1365790069103241,-0.486407995223999,-0.062036000192165375
1776592913397628200,1.710628173828125,0.1966560035943985,-0.6491600275039673,-0.10468299686908722
1776592913417186000,1.73018603515625,0.17914700508117676,-0.8721489906311035,-0.1465499997138977
1776592913436740600,1.74974072265625,0.08241499960422516,-1.0950039625167847,-0.18924400210380554
1776592913456295700,1.769295654296875,-0.09442500025033951,-1.3294490575790405,-0.2501859962940216
1776592913475854600,1.7888544921875,-0.28913599252700806,-1.5376490354537964,-0.3303999900817871
1776592913495415600,1.80841552734375,-0.3530530035495758,-1.4938520193099976,-0.35702601075172424
1776592913514973700,1.8279736328125,-0.3671889901161194,-1.3127659559249878,-0.36474698781967163
1776592913534529500,1.847529541015625,-0.3871690034866333,-1.1943930387496948,-0.392892986536026
1776592913554089000,1.8670888671875,-0.36083298921585083,-1.2277029752731323,-0.4320259988307953
1776592913573644500,1.88664453125,-0.26085901260375977,-1.1853599548339844,-0.43970200419425964
1776592913593195800,1.90619580078125,-0.07377199828624725,-1.0325089693069458,-0.39456799626350403
1776592913612754200,1.925754150390625,0.0755470022559166,-0.9159690141677856,-0.3466149866580963
1776592913632312000,1.94531201171875,0.21274499595165253,-0.9459329843521118,-0.30120599269866943
1776592913651867600,1.96486767578125,0.311710000038147,-0.9568859934806824,-0.24646799266338348
1776592913671426800,1.9844267578125,0.24877899885177612,-0.9255989789962769,-0.23639699816703796
1776592913690987000,2.003987060546875,0.09849999845027924,-0.9101420044898987,-0.263374000787735
1776592913710549200,2.02354931640625,-0.0034970000851899385,-0.8999940156936646,-0.28630000352859497
1776592913730109000,2.04310888671875,-0.2031870037317276,-0.9523230195045471,-0.3516649901866913
1776592913749664300,2.062664306640625,-0.31195101141929626,-0.9729620218276978,-0.3870140016078949
1776592913769217300,2.08221728515625,-0.34597399830818176,-0.9930070042610168,-0.40072301030158997
1776592913788770800,2.101770751953125,-0.3487809896469116,-1.0119110345840454,-0.4175269901752472
1776592913808325000,2.1213251953125,-0.29881399869918823,-1.0280250310897827,-0.42352598905563354
1776592913827881500,2.140881591796875,-0.1563670039176941,-1.092924952507019,-0.39197400212287903
1776592913847441200,2.160441162109375,-0.016553999856114388,-1.09614896774292,-0.3515450060367584
1776592913867004200,2.180004150390625,0.07396300137042999,-1.0945069789886475,-0.3259490132331848
1776592913886570500,2.199570556640625,0.1269810050725937,-1.0846199989318848,-0.31148698925971985
1776592913906134500,2.219134521484375,0.20578399300575256,-1.2014319896697998,-0.2671619951725006
1776592913925695700,2.23869580078125,0.23559999465942383,-1.2091150283813477,-0.22742900252342224
1776592913945255700,2.258255615234375,0.1837189942598343,-1.0378179550170898,-0.21837200224399567
1776592913964814600,2.277814697265625,0.09738600254058838,-0.8401679992675781,-0.22524699568748474
1776592913984371200,2.29737109375,0.026895999908447266,-0.718438982963562,-0.22504399716854095
1776592914003928000,2.316927978515625,-0.055027998983860016,-0.6580039858818054,-0.24576899409294128
1776592914023488800,2.33648876953125,-0.16062000393867493,-0.6311699748039246,-0.30021798610687256
1776592914043049500,2.356049560546875,-0.22032000124454498,-0.6339449882507324,-0.3333759903907776
1776592914062611200,2.375611083984375,-0.225505992770195,-0.6430720090866089,-0.3449229896068573
1776592914082173700,2.395173583984375,-0.12010599672794342,-0.6991639733314514,-0.2996380031108856
1776592914101735400,2.4147353515625,0.02422799915075302,-0.7190470099449158,-0.23640699684619904
1776592914121297200,2.434297119140625,0.10931900143623352,-0.5650449991226196,-0.20063099265098572
1776592914140856800,2.45385693359375,0.12460500001907349,-0.4090630114078522,-0.1815059930086136
1776592914160417000,2.4734169921875,0.12820300459861755,-0.35359400510787964,-0.16556000709533691
1776592914179983000,2.492983154296875,0.17168700695037842,-0.26982998847961426,-0.09306100010871887
1776592914199543000,2.51254296875,0.1964849978685379,-0.21631400287151337,-0.01211399957537651
1776592914219097000,2.53209716796875,0.17846199870109558,-0.1978590041399002,0.01486399956047535
1776592914238657000,2.551656982421875,0.15783900022506714,-0.17983600497245789,0.030762000009417534
1776592914258217200,2.57121728515625,0.12079600244760513,-0.19339799880981445,0.01961500011384487
1776592914277776100,2.590776123046875,0.08151599764823914,-0.2414969950914383,-0.020627999678254128
1776592914297336600,2.610336669921875,0.09045500308275223,-0.23636600375175476,-0.05176499858498573
1776592914316897800,2.629897705078125,0.0805789977312088,-0.20289699733257294,-0.14518700540065765
1776592914336464400,2.64946435546875,0.02769700065255165,-0.17840799689292908,-0.26658201217651367
1776592914356036900,2.669036865234375,0.006020999979227781,-0.16266700625419617,-0.2897160053253174
1776592914375603000,2.68860302734375,0.011029000394046307,-0.1488180011510849,-0.2468169927597046
1776592914395166000,2.708166015625,0.006905999965965748,-0.12651999294757843,-0.20489799976348877
1776592914414730500,2.72773046875,-0.008954999968409538,-0.10191299766302109,-0.18004800379276276
1776592914434294300,2.747294189453125,-0.03723499923944473,-0.08197599649429321,-0.1700499951839447
1776592914453853200,2.766853271484375,-0.05274299904704094,-0.0665069967508316,-0.142862007021904
1776592914473405700,2.78640576171875,-0.042507000267505646,-0.06352999806404114,-0.10866300016641617
1776592914492958200,2.805958251953125,-0.026362000033259392,-0.05254799872636795,-0.08672600239515305
1776592914512511200,2.82551123046875,0.006924999877810478,-0.04407300055027008,-0.03777699917554855
1776592914532066800,2.84506689453125,0.021757999435067177,-0.04557599872350693,-0.004056000150740147
1776592914551623700,2.864623779296875,0.05411199852824211,-0.05685200169682503,0.04854600131511688
1776592914571183900,2.884183837890625,0.09089700132608414,-0.0876069962978363,0.09321200102567673
1776592914590749400,2.90374951171875,0.09718699753284454,-0.10136999934911728,0.09892100095748901
1776592914610308000,2.92330810546875,0.08086399734020233,-0.09936399757862091,0.0879250019788742
1776592914629860600,2.942860595703125,0.051270999014377594,-0.0780780017375946,0.06461399793624878
1776592914649418200,2.962418212890625,0.026977000758051872,-0.06492000073194504,0.03953399881720543
1776592914668978700,2.981978759765625,0.001095999963581562,-0.05411599949002266,0.019068999215960503
1776592914688541700,3.001541748046875,-0.0775889977812767,-0.0480710007250309,-0.0033859999384731054
1776592914708106200,3.021106201171875,-0.17137399315834045,-0.022588999941945076,-0.021131999790668488
1776592914727672000,3.040672119140625,-0.18966199457645416,-0.0005029999883845448,-0.030135000124573708
1776592914747235000,3.060235107421875,-0.14112399518489838,-0.0007130000158213079,-0.0245789997279644
1776592914766792000,3.0797919921875,-0.09009400010108948,0.0125730000436306,-0.019021999090909958
1776592914786351000,3.09935107421875,-0.034922000020742416,0.026535000652074814,-0.007829999551177025
1776592914805914400,3.118914306640625,0.077504001557827,0.049286000430583954,0.011231999844312668
1776592914825478700,3.138478759765625,0.15230600535869598,0.06847800314426422,0.040334999561309814
1776592914845036000,3.1580361328125,0.158842995762825,0.06903500109910965,0.06212199851870537
1776592914864585000,3.1775849609375,0.14113199710845947,0.056710001081228256,0.07881399989128113
1776592914884134700,3.197134765625,0.12966099381446838,0.048618998378515244,0.09844700247049332
1776592914903690200,3.216690185546875,0.04380299896001816,0.041478000581264496,0.10372299700975418
1776592914923249000,3.236248779296875,-0.0439939983189106,0.031821999698877335,0.0980990007519722
1776592914942805200,3.25580517578125,-0.08644799888134003,0.01769999973475933,0.09374299645423889
1776592914962361900,3.27536181640625,-0.09123600274324417,0.014810999855399132,0.07897499948740005
1776592914981924000,3.294924072265625,-0.08776400238275528,0.03793900087475777,0.058563001453876495
1776592915001486000,3.314486083984375,-0.07856400310993195,0.04036499932408333,0.04430500045418739
1776592915021048300,3.33404833984375,-0.05985099822282791,0.02322700060904026,0.033670999109745026
1776592915040611300,3.353611328125,-0.0575920008122921,0.014441000297665596,0.024325000122189522
1776592915060173800,3.373173828125,-0.0433490015566349,0.00873900018632412,0.014740999788045883
1776592915079738400,3.39273828125,0.0040779998525977135,0.01312899962067604,0.021827999502420425
1776592915099299800,3.4122998046875,0.06136300042271614,0.02002199925482273,0.033883001655340195
