time,seconds_elapsed,z,y,x
1776592905937156600,0.365156494140625,11.729000091552734,0.9610000252723694,0.42100000381469727
1776592905946935000,0.37493505859375,11.178999900817871,0.41100001335144043,0.2639999985694885
1776592905966493700,0.39449365234375,7.256999969482422,0.17599999904632568,0.34299999475479126
1776592905986055000,0.414054931640625,5.2170000076293945,0.3330000042915344,0.1860000044107437
1776592906005613800,0.43361376953125,4.824999809265137,0.41100001335144043,-0.12700000405311584
1776592906025171700,0.453171630859375,7.099999904632568,0.3330000042915344,-0.3619999885559082
1776592906044726300,0.472726318359375,5.922999858856201,0.01899999938905239,-0.7549999952316284
1776592906064284000,0.492283935546875,2.4709999561309814,0.01899999938905239,-1.0679999589920044
1776592906083847000,0.511846923828125,-3.569000005722046,1.1169999837875366,-0.8330000042915344
1776592906103406300,0.53140625,-5.531000137329102,2.687000036239624,-0.6759999990463257
1776592906122964500,0.550964599609375,-8.119999885559082,3.1570000648498535,-1.774999976158142
1776592906142523000,0.57052294921875,-9.218000411987305,2.8440001010894775,-3.421999931335449
1776592906162084600,0.590084716796875,-9.923999786376953,1.1959999799728394,-4.834000110626221
1776592906181645300,0.609645263671875,-15.807999610900879,-0.057999998331069946,-6.090000152587891
1776592906201201700,0.62920166015625,-25.222999572753906,0.3330000042915344,-7.110000133514404
1776592906220758500,0.648758544921875,-27.027999877929688,1.5099999904632568,-6.090000152587891
1776592906240318700,0.668318603515625,-20.67300033569336,1.1959999799728394,-5.383999824523926
1776592906259880200,0.687880126953125,-12.592000007629395,0.09799999743700027,-5.933000087738037
1776592906279440000,0.70743994140625,-7.571000099182129,-0.057999998331069946,-5.1479997634887695
1776592906299002000,0.727002197265625,-7.64900016784668,0.5680000185966492,-4.363999843597412
1776592906318565400,0.7465654296875,-9.218000411987305,0.49000000953674316,-4.284999847412109
1776592906338123300,0.766123291015625,-8.354999542236328,-0.3720000088214874,-4.363999843597412
1776592906357679000,0.78567919921875,-4.275000095367432,-0.9210000038146973,-3.7360000610351562
1776592906377237000,0.805237060546875,-0.19599999487400055,-0.5289999842643738,-2.3239998817443848
1776592906396794000,0.824794189453125,1.4509999752044678,0.01899999938905239,-1.774999976158142
1776592906416350200,0.84435009765625,1.371999979019165,0.7250000238418579,-2.009999990463257
1776592906435907600,0.863907470703125,2.3919999599456787,-0.13699999451637268,-2.9509999752044678
1776592906455466200,0.88346630859375,5.922999858856201,0.41100001335144043,2.303999900817871
1776592906475023600,0.903023681640625,11.88599967956543,1.9809999465942383,5.677999973297119
1776592906494580000,0.922580078125,14.317999839782715,1.7450000047683716,3.3239998817443848
1776592906514136300,0.94213623046875,16.121999740600586,1.5880000591278076,0.9700000286102295
1776592906533690400,0.9616904296875,16.357999801635742,1.430999994277954,-0.2840000092983246
1776592906553246700,0.981246826171875,17.22100067138672,1.8240000009536743,1.2059999704360962
1776592906572808200,1.00080810546875,17.927000045776367,2.6080000400543213,0.7350000143051147
1776592906592371500,1.020371337890625,14.631999969482422,2.5299999713897705,-1.5390000343322754
1776592906611934700,1.039934814453125,14.081999778747559,2.5299999713897705,-2.1670000553131104
1776592906631495000,1.059494873046875,14.866999626159668,2.372999906539917,-2.7939999103546143
1776592906651055600,1.0790556640625,13.925000190734863,3.941999912261963,0.8130000233650208
1776592906670617900,1.098617919921875,13.612000465393066,3.86299991607666,-0.20499999821186066
1776592906690182400,1.118182373046875,13.37600040435791,3.1570000648498535,-0.7549999952316284
1776592906709749000,1.1377490234375,12.277999877929688,2.765000104904175,-1.6180000305175781
1776592906729309700,1.157309814453125,11.807000160217285,2.4509999752044678,-0.6759999990463257
1776592906748868400,1.176868408203125,12.906000137329102,2.2160000801086426,0.42100000381469727
1776592906768430600,1.1964306640625,13.140999794006348,1.1169999837875366,-1.1469999551773071
1776592906787988200,1.21598828125,10.630000114440918,1.0390000343322754,-1.225000023841858
1776592906807537400,1.235537353515625,9.218000411987305,1.2740000486373901,-0.4410000145435333
1776592906827090700,1.255090576171875,10.315999984741211,1.0390000343322754,-0.2840000092983246
1776592906846652400,1.27465234375,10.944000244140625,1.1169999837875366,-0.3619999885559082
1776592906866215700,1.294215576171875,10.315999984741211,1.1169999837875366,-0.5979999899864197
1776592906885776400,1.3137763671875,9.531999588012695,1.0390000343322754,-0.8330000042915344
1776592906905335300,1.333335205078125,9.923999786376953,1.3530000448226929,-0.5979999899864197
1776592906924896500,1.352896484375,11.178999900817871,1.5099999904632568,0.1860000044107437
1776592906944454000,1.372453857421875,12.74899959564209,1.9019999504089355,0.6570000052452087
1776592906964009200,1.39200927734375,12.906000137329102,1.5880000591278076,-0.04899999871850014
1776592906983570400,1.4115703125,11.649999618530273,1.430999994277954,-0.2840000092983246
1776592907003133700,1.4311337890625,10.081000328063965,0.8820000290870667,-0.6759999990463257
1776592907022695400,1.4506953125,9.845999717712402,0.8040000200271606,-0.5189999938011169
1776592907042256000,1.470255859375,9.767000198364258,0.9610000252723694,-0.12700000405311584
1776592907061818400,1.489818359375,9.29699993133545,1.2740000486373901,0.028999999165534973
1776592907081380900,1.509380859375,8.746999740600586,1.3530000448226929,-0.12700000405311584
1776592907100943600,1.528943603515625,8.197999954223633,1.1959999799728394,-0.2840000092983246
1776592907120503600,1.548503662109375,8.59000015258789,1.2740000486373901,-0.04899999871850014
1776592907140059600,1.5680595703125,9.45300006866455,1.5099999904632568,0.34299999475479126
1776592907159613700,1.58761376953125,9.689000129699707,1.5880000591278076,0.34299999475479126
1776592907179165200,1.607165283203125,9.609999656677246,1.7450000047683716,0.34299999475479126
1776592907198717000,1.626717041015625,9.609999656677246,1.5880000591278076,0.1860000044107437
1776592907218275600,1.646275634765625,10.395000457763672,1.2740000486373901,-0.04899999871850014
1776592907237836800,1.6658369140625,10.708999633789062,1.1959999799728394,-0.12700000405311584
1776592907257394400,1.68539453125,10.15999984741211,1.1959999799728394,0.028999999165534973
1776592907276952000,1.7049521484375,9.531999588012695,1.1959999799728394,-0.20499999821186066
1776592907296510200,1.72451025390625,9.689000129699707,1.2740000486373901,-0.04899999871850014
1776592907316069400,1.7440693359375,10.081000328063965,1.2740000486373901,-0.04899999871850014
1776592907335629000,1.763629150390625,9.923999786376953,1.1959999799728394,0.028999999165534973
1776592907355189000,1.78318896484375,9.689000129699707,1.2740000486373901,0.028999999165534973
1776592907374750000,1.80275,9.689000129699707,1.2740000486373901,-0.04899999871850014
1776592907394310100,1.82231005859375,9.45300006866455,1.430999994277954,0.028999999165534973
1776592907413869300,1.841869384765625,9.29699993133545,1.430999994277954,0.028999999165534973
1776592907433428200,1.86142822265625,9.375,1.430999994277954,0.1860000044107437
1776592907452987000,1.88098681640625,9.689000129699707,1.2740000486373901,0.028999999165534973
1776592907472545500,1.900545654296875,9.845999717712402,1.3530000448226929,0.10700000077486038
1776592907492103200,1.920103271484375,9.845999717712402,1.5099999904632568,0.10700000077486038
1776592907511658500,1.939658447265625,9.609999656677246,1.5099999904632568,0.1860000044107437
1776592907531213800,1.9592138671875,9.767000198364258,1.430999994277954,0.10700000077486038
1776592907550766800,1.978766845703125,9.923999786376953,1.1959999799728394,-0.04899999871850014
1776592907570318800,1.99831884765625,10.003000259399414,1.1959999799728394,0.028999999165534973
1776592907589873700,2.017873779296875,9.845999717712402,1.1959999799728394,0.028999999165534973
1776592907609429000,2.037428955078125,9.609999656677246,1.2740000486373901,0.10700000077486038
1776592907628987000,2.05698681640625,9.609999656677246,1.3530000448226929,-0.04899999871850014
1776592907648545800,2.0765458984375,9.767000198364258,1.430999994277954,0.2639999985694885
1776592907668103200,2.096103271484375,9.923999786376953,1.3530000448226929,0.10700000077486038
1776592907687663000,2.1156630859375,10.003000259399414,1.3530000448226929,-0.04899999871850014
1776592907707220200,2.13522021484375,9.845999717712402,1.2740000486373901,-0.12700000405311584
1776592907726772500,2.1547724609375,9.689000129699707,1.2740000486373901,-0.12700000405311584
1776592907746327600,2.17432763671875,9.531999588012695,1.3530000448226929,0.028999999165534973
1776592907765887500,2.193887451171875,9.375,1.430999994277954,0.1860000044107437
1776592907785447000,2.213447021484375,9.29699993133545,1.430999994277954,0.028999999165534973
1776592907805001700,2.233001708984375,9.531999588012695,1.430999994277954,0.028999999165534973
1776592907824554500,2.252554443359375,9.767000198364258,1.430999994277954,0.028999999165534973
1776592907844106800,2.272106689453125,9.845999717712402,1.5099999904632568,0.2639999985694885
1776592907863662000,2.291662109375,10.081000328063965,1.3530000448226929,0.1860000044107437
1776592907883223000,2.31122314453125,10.003000259399414,1.3530000448226929,0.1860000044107437
1776592907902782200,2.3307822265625,9.609999656677246,1.3530000448226929,-0.12700000405311584
1776592907922334500,2.35033447265625,9.29699993133545,1.430999994277954,-0.12700000405311584
1776592907941891800,2.369891845703125,9.45300006866455,1.5099999904632568,0.028999999165534973
1776592907961453000,2.389453125,9.923999786376953,1.5099999904632568,0.10700000077486038
1776592907981011200,2.40901123046875,9.767000198364258,1.2740000486373901,-0.04899999871850014
1776592908000567000,2.428567138671875,9.531999588012695,1.3530000448226929,0.028999999165534973
1776592908020123100,2.448123046875,9.767000198364258,1.3530000448226929,0.028999999165534973
1776592908039681000,2.467680908203125,9.923999786376953,1.5099999904632568,0.1860000044107437
1776592908059232500,2.487232421875,9.689000129699707,1.6670000553131104,0.2639999985694885
1776592908078780700,2.50678076171875,9.689000129699707,1.5099999904632568,0.028999999165534973
1776592908098335700,2.526335693359375,10.003000259399414,1.3530000448226929,-0.12700000405311584
1776592908117898800,2.545898681640625,9.767000198364258,1.3530000448226929,0.028999999165534973
1776592908137459500,2.56545947265625,9.375,1.5880000591278076,0.2639999985694885
1776592908157018400,2.585018310546875,9.375,1.5099999904632568,0.1860000044107437
1776592908176577300,2.604577392578125,9.845999717712402,1.3530000448226929,0.028999999165534973
1776592908196135200,2.62413525390625,10.003000259399414,1.2740000486373901,-0.04899999871850014
1776592908215694800,2.64369482421875,9.609999656677246,1.430999994277954,0.10700000077486038
1776592908235255800,2.663255859375,9.45300006866455,1.5099999904632568,0.10700000077486038
1776592908254814200,2.682814208984375,9.689000129699707,1.5099999904632568,0.1860000044107437
1776592908274370000,2.7023701171875,9.923999786376953,1.3530000448226929,-0.04899999871850014
1776592908293930000,2.721929931640625,9.923999786376953,1.2740000486373901,-0.20499999821186066
1776592908313492500,2.741492431640625,9.689000129699707,1.430999994277954,-0.04899999871850014
1776592908333056500,2.761056396484375,9.609999656677246,1.5880000591278076,0.1860000044107437
1776592908352621800,2.780621826171875,9.767000198364258,1.5099999904632568,0.1860000044107437
1776592908372187400,2.8001875,9.689000129699707,1.5099999904632568,0.10700000077486038
1776592908391751700,2.819751708984375,9.767000198364258,1.430999994277954,-0.04899999871850014
1776592908411311900,2.839311767578125,9.531999588012695,1.5099999904632568,-0.04899999871850014
1776592908430868500,2.858868408203125,9.29699993133545,1.5099999904632568,0.10700000077486038
1776592908450421200,2.878421142578125,9.375,1.5099999904632568,0.028999999165534973
1776592908469973000,2.897972900390625,9.689000129699707,1.5099999904632568,0.10700000077486038
